Logger ID;Year;Month;Day;Hour;Minute;Second;Latitude;Longitude;Speed;Searching time;Voltage;Temperature;Altitude;Div up;Div down;No GPS - timeout;No GPS - diving;In range;Diving duration;Raw latitude;Raw Longitude;Decision voltage;Milisecond;Acc_X;Acc_Y;Acc_Z
HAR07;2018;12;2;5;12;0;-37.854433;77.523833;1.3;69;3.93;17.5;;;;;;;;3751266S;07731430E;;0;;;
HAR07;2018;12;2;5;12;36;;;;;;;;;;;;1;;;;3.92;0;;;
HAR07;2018;12;2;5;13;0;-37.854633;77.523900;0.0;30;3.92;17.5;;;;;;;;3751278S;07731434E;;0;;;
HAR07;2018;12;2;5;13;0;-37.854533;77.523900;0.1;30;3.92;17.5;;;;;;;;3751272S;07731434E;;0;;;
HAR07;2018;12;2;5;13;9;;;;;;;;;;;;1;;;;3.92;0;;;
HAR07;2018;12;2;5;13;42;;;;;;;;;;;;1;;;;3.91;0;;;
HAR07;2018;12;2;5;14;0;-37.854483;77.523950;0.3;24;3.91;17.5;;;;;;;;3751269S;07731437E;;0;;;
HAR07;2018;12;2;5;19;5;;;;;;;;;;;;1;;;;3.92;0;;;
HAR07;2018;12;2;5;19;6;;;;;;;;;;;;1;;;;3.93;0;;;
HAR07;2018;12;2;5;23;59;;;;;;;;;;;;1;;;;3.93;0;;;
HAR07;2018;12;2;5;24;0;;;;;;;;;;;;1;;;;3.93;0;;;
HAR07;2018;12;2;5;28;55;;;;;;;;;;;;1;;;;3.93;0;;;
HAR07;2018;12;2;5;28;56;;;;;;;;;;;;1;;;;3.93;0;;;
HAR07;2018;12;2;5;29;0;-37.854600;77.523867;0.2;40;3.93;21.5;;;;;;;;3751276S;07731432E;;0;;;
HAR07;2018;12;2;5;29;3;;;;;;;;;;;;1;;;;3.93;0;;;
HAR07;2018;12;2;5;29;4;;;;;;;;;;;;1;;;;3.93;0;;;
HAR07;2018;12;2;5;29;5;;;;;;;;;;;;1;;;;3.93;0;;;
HAR07;2018;12;2;5;45;0;-37.841150;77.493717;1.3;34;3.98;22;;;;;;;;3750469S;07729623E;;0;;;
HAR07;2018;12;2;6;0;0;-37.837617;77.493450;8.8;6;4;21.5;;;;;;;;3750257S;07729607E;;0;;;
HAR07;2018;12;2;6;15;0;-37.714117;77.457067;35.;10;4.03;20;;;;;;;;3742847S;07727424E;;0;;;
HAR07;2018;12;2;6;31;0;-37.592267;77.421017;44.;9;4.08;20.5;;;;;;;;3735536S;07725261E;;0;;;
HAR07;2018;12;2;6;46;0;-37.471533;77.358767;44.;6;4.08;21;;;;;;;;3728292S;07721526E;;0;;;
HAR07;2018;12;2;7;1;0;-37.357883;77.283117;50.;6;4.1;21;;;;;;;;3721473S;07716987E;;0;;;
HAR07;2018;12;2;7;16;0;-37.254883;77.199117;29.;7;4.12;21.5;;;;;;;;3715293S;07711947E;;0;;;
HAR07;2018;12;2;7;32;0;-37.173233;77.113850;35.;28;4.14;21.5;;;;;;;;3710394S;07706831E;;0;;;
HAR07;2018;12;2;7;48;0;-37.093917;77.039867;1.2;31;4.12;23.5;;;;;;;;3705635S;07702392E;;0;;;
HAR07;2018;12;2;8;4;0;-37.040217;76.977883;21.;12;4.12;24.5;;;;;;;;3702413S;07658673E;;0;;;
HAR07;2018;12;2;8;21;0;-36.990867;76.913117;25.;107;4.14;23.5;;;;;;;;3659452S;07654787E;;0;;;
HAR07;2018;12;2;8;37;0;-36.968433;76.901100;17.;38;4.12;25.5;;;;;;;;3658106S;07654066E;;0;;;
HAR07;2018;12;2;8;53;0;-36.894100;76.849783;18.;38;4.13;21.5;;;;;;;;3653646S;07650987E;;0;;;
HAR07;2018;12;2;9;9;0;-36.825300;76.789050;9.6;48;4.13;23.5;;;;;;;;3649518S;07647343E;;0;;;
HAR07;2018;12;2;9;26;0;-36.767700;76.727167;17.;76;4.13;23;;;;;;;;3646062S;07643630E;;0;;;
HAR07;2018;12;2;9;42;0;-36.706117;76.660217;18.;48;4.14;23.5;;;;;;;;3642367S;07639613E;;0;;;
HAR07;2018;12;2;9;58;0;-36.667733;76.620233;10.;67;4.13;24;;;;;;;;3640064S;07637214E;;0;;;
HAR07;2018;12;2;10;14;0;-36.630417;76.575567;19.;2;4.13;22;;;;;;;;3637825S;07634534E;;0;;;
HAR07;2018;12;2;10;29;0;-36.615050;76.560900;6.0;6;4.12;20.5;;;;;;;;3636903S;07633654E;;0;;;
HAR07;2018;12;2;10;45;0;-36.580683;76.521833;29.;10;4.15;19;;;;;;;;3634841S;07631310E;;0;;;
HAR07;2018;12;2;11;0;0;-36.544317;76.469700;15.;6;4.13;23;;;;;;;;3632659S;07628182E;;0;;;
HAR07;2018;12;2;11;15;0;-36.525033;76.440950;6.6;5;4.15;21.5;;;;;;;;3631502S;07626457E;;0;;;
HAR07;2018;12;2;11;31;0;-36.522867;76.444850;7.2;14;4.12;20.5;;;;;;;;3631372S;07626691E;;0;;;
HAR07;2018;12;2;11;47;0;-36.507550;76.430350;17.;9;4.13;16.5;;;;;;;;3630453S;07625821E;;0;;;
HAR07;2018;12;2;12;2;0;-36.494967;76.376433;29.;37;4.14;17;;;;;;;;3629698S;07622586E;;0;;;
HAR07;2018;12;2;12;19;0;-36.449250;76.306183;19.;123;4.14;16.5;;;;;;;;3626955S;07618371E;;0;;;
HAR07;2018;12;2;12;35;0;-36.393467;76.236667;10.;21;4.14;16.5;;;;;;;;3623608S;07614200E;;0;;;
HAR07;2018;12;2;12;50;0;-36.358817;76.185333;14.;10;4.14;17.5;;;;;;;;3621529S;07611120E;;0;;;
HAR07;2018;12;2;13;6;0;-36.329550;76.119233;23.;68;4.14;17.5;;;;;;;;3619773S;07607154E;;0;;;
HAR07;2018;12;2;13;22;0;-36.289783;76.052867;13.;14;4.14;17;;;;;;;;3617387S;07603172E;;0;;;
HAR07;2018;12;2;13;37;0;-36.251950;75.989033;24.;13;4.14;16.5;;;;;;;;3615117S;07559342E;;0;;;
HAR07;2018;12;2;13;53;0;-36.218383;75.934900;17.;69;4.14;16.5;;;;;;;;3613103S;07556094E;;0;;;
HAR07;2018;12;2;14;9;0;-36.183333;75.882100;15.;42;4.13;17;;;;;;;;3611000S;07552926E;;0;;;
HAR07;2018;12;2;14;26;0;-36.180600;75.861133;28.;78;4.13;16.5;;;;;;;;3610836S;07551668E;;0;;;
HAR07;2018;12;2;14;41;0;-36.201117;75.860350;24.;14;4.12;17;;;;;;;;3612067S;07551621E;;0;;;
HAR07;2018;12;2;14;56;0;-36.218900;75.892650;8.8;33;4.12;17;;;;;;;;3613134S;07553559E;;0;;;
HAR07;2018;12;2;15;12;0;-36.232500;75.918650;34.;53;4.12;16.5;;;;;;;;3613950S;07555119E;;0;;;
HAR07;2018;12;2;15;28;0;-36.229700;75.922917;1.4;26;4.12;16.5;;;;;;;;3613782S;07555375E;;0;;;
HAR07;2018;12;2;15;43;0;-36.226517;75.926000;1.5;6;4.12;17;;;;;;;;3613591S;07555560E;;0;;;
HAR07;2018;12;2;15;58;0;-36.223783;75.928950;1.7;5;4.12;17.5;;;;;;;;3613427S;07555737E;;0;;;
HAR07;2018;12;2;16;14;0;-36.220850;75.931767;0.5;9;4.12;17.5;;;;;;;;3613251S;07555906E;;0;;;
HAR07;2018;12;2;16;29;0;-36.218433;75.934933;0.8;6;4.12;16;;;;;;;;3613106S;07556096E;;0;;;
HAR07;2018;12;2;16;44;0;-36.215883;75.938050;0.5;9;4.12;17;;;;;;;;3612953S;07556283E;;0;;;
HAR07;2018;12;2;16;59;0;-36.213567;75.940900;1.0;15;4.11;20;;;;;;;;3612814S;07556454E;;0;;;
HAR07;2018;12;2;17;15;0;-36.210667;75.945267;1.4;8;4.11;21;;;;;;;;3612640S;07556716E;;0;;;
HAR07;2018;12;2;17;30;0;-36.209617;75.947917;0.3;13;4.11;20.5;;;;;;;;3612577S;07556875E;;0;;;
HAR07;2018;12;2;17;45;0;-36.207433;75.950983;0.3;11;4.11;21;;;;;;;;3612446S;07557059E;;0;;;
HAR07;2018;12;2;18;1;0;-36.204833;75.954667;2.3;39;4.11;21;;;;;;;;3612290S;07557280E;;0;;;
HAR07;2018;12;2;18;16;0;-36.201950;75.957583;0.6;9;4.1;20.5;;;;;;;;3612117S;07557455E;;0;;;
HAR07;2018;12;2;18;31;0;-36.199050;75.960483;1.7;6;4.1;19;;;;;;;;3611943S;07557629E;;0;;;
HAR07;2018;12;2;18;47;0;-36.196517;75.963567;0.6;8;4.1;20;;;;;;;;3611791S;07557814E;;0;;;
HAR07;2018;12;2;19;2;0;-36.194600;75.966633;0.6;8;4.1;20;;;;;;;;3611676S;07557998E;;0;;;
HAR07;2018;12;2;19;17;0;-36.192383;75.969450;0.7;8;4.1;20;;;;;;;;3611543S;07558167E;;0;;;
HAR07;2018;12;2;19;32;0;-36.190367;75.972150;1.4;7;4.1;20;;;;;;;;3611422S;07558329E;;0;;;
HAR07;2018;12;2;19;48;0;-36.188650;75.975317;1.2;7;4.1;20;;;;;;;;3611319S;07558519E;;0;;;
HAR07;2018;12;2;20;3;0;-36.187117;75.978317;2.5;9;4.09;19;;;;;;;;3611227S;07558699E;;0;;;
HAR07;2018;12;2;20;18;0;-36.185533;75.981883;1.3;6;4.09;17;;;;;;;;3611132S;07558913E;;0;;;
HAR07;2018;12;2;20;33;0;-36.183700;75.985500;0.8;6;4.09;15.5;;;;;;;;3611022S;07559130E;;0;;;
HAR07;2018;12;2;20;48;0;-36.182050;75.987583;0.5;6;4.09;16;;;;;;;;3610923S;07559255E;;0;;;
HAR07;2018;12;2;21;4;0;-36.181017;75.991283;1.2;7;4.09;15.5;;;;;;;;3610861S;07559477E;;0;;;
HAR07;2018;12;2;21;19;0;-36.179617;75.995150;1.2;7;4.09;15.5;;;;;;;;3610777S;07559709E;;0;;;
HAR07;2018;12;2;21;34;0;-36.177783;75.997517;1.5;25;4.09;16;;;;;;;;3610667S;07559851E;;0;;;
HAR07;2018;12;2;21;50;0;-36.176183;76.000350;1.8;35;4.08;16;;;;;;;;3610571S;07600021E;;0;;;
HAR07;2018;12;2;22;5;0;-36.173933;76.003183;1.6;6;4.08;16;;;;;;;;3610436S;07600191E;;0;;;
HAR07;2018;12;2;22;20;0;-36.183583;76.045233;17.;8;4.08;15;;;;;;;;3611015S;07602714E;;0;;;
HAR07;2018;12;2;22;36;0;-36.197167;76.055700;20.;7;4.08;15.5;;;;;;;;3611830S;07603342E;;0;;;
HAR07;2018;12;2;22;51;0;-36.217533;76.080400;20.;11;4.08;15.5;;;;;;;;3613052S;07604824E;;0;;;
HAR07;2018;12;2;23;6;0;-36.245417;76.120500;25.;9;4.08;16;;;;;;;;3614725S;07607230E;;0;;;
HAR07;2018;12;2;23;21;0;-36.287550;76.184550;21.;6;4.08;16;;;;;;;;3617253S;07611073E;;0;;;
HAR07;2018;12;2;23;37;0;-36.334867;76.236600;24.;7;4.08;16;;;;;;;;3620092S;07614196E;;0;;;
HAR07;2018;12;2;23;52;0;-36.390717;76.310700;18.;14;4.08;16.5;;;;;;;;3623443S;07618642E;;0;;;
HAR07;2018;12;3;0;7;0;-36.439483;76.385817;28.;9;4.08;17;;;;;;;;3626369S;07623149E;;0;;;
HAR07;2018;12;3;0;22;0;-36.492317;76.455833;24.;11;4.08;17;;;;;;;;3629539S;07627350E;;0;;;
HAR07;2018;12;3;0;38;0;-36.558083;76.538717;17.;9;4.08;17.5;;;;;;;;3633485S;07632323E;;0;;;
HAR07;2018;12;3;0;53;0;-36.596733;76.607117;0.2;6;4.08;16.5;;;;;;;;3635804S;07636427E;;0;;;
HAR07;2018;12;3;1;8;0;-36.636750;76.651217;26.;8;4.08;16;;;;;;;;3638205S;07639073E;;0;;;
HAR07;2018;12;3;1;23;0;-36.678167;76.708283;24.;8;4.08;17;;;;;;;;3640690S;07642497E;;0;;;
HAR07;2018;12;3;1;39;0;-36.712383;76.770633;16.;11;4.09;17.5;;;;;;;;3642743S;07646238E;;0;;;
HAR07;2018;12;3;1;54;0;-36.740383;76.783383;13.;11;4.1;19;;;;;;;;3644423S;07647003E;;0;;;
HAR07;2018;12;3;2;9;0;-36.774750;76.838050;19.;11;4.11;20;;;;;;;;3646485S;07650283E;;0;;;
HAR07;2018;12;3;2;25;0;-36.805850;76.859550;15.;14;4.12;21;;;;;;;;3648351S;07651573E;;0;;;
HAR07;2018;12;3;2;40;0;-36.838617;76.876450;22.;9;4.14;21.5;;;;;;;;3650317S;07652587E;;0;;;
HAR07;2018;12;3;2;55;0;-36.876317;76.924767;10.;7;4.12;23.5;;;;;;;;3652579S;07655486E;;0;;;
HAR07;2018;12;3;3;11;0;-36.912350;76.974067;31.;5;4.14;23.5;;;;;;;;3654741S;07658444E;;0;;;
HAR07;2018;12;3;3;27;0;-36.948717;77.022550;29.;6;4.13;25;;;;;;;;3656923S;07701353E;;0;;;
HAR07;2018;12;3;3;42;0;-36.987350;77.061767;23.;7;4.13;24;;;;;;;;3659241S;07703706E;;0;;;
HAR07;2018;12;3;3;58;0;-37.023567;77.114883;32.;1;4.13;23;;;;;;;;3701414S;07706893E;;0;;;
HAR07;2018;12;3;4;14;0;-37.070183;77.175100;14.;49;4.14;21;;;;;;;;3704211S;07710506E;;0;;;
HAR07;2018;12;3;4;29;0;-37.114950;77.219350;19.;4;4.13;22;;;;;;;;3706897S;07713161E;;0;;;
HAR07;2018;12;3;4;45;0;-37.161300;77.265617;15.;2;4.14;25;;;;;;;;3709678S;07715937E;;0;;;
HAR07;2018;12;3;5;1;0;-37.198467;77.285033;0.5;6;4.12;23.5;;;;;;;;3711908S;07717102E;;0;;;
HAR07;2018;12;3;5;16;0;-37.228017;77.309967;15.;7;4.15;19;;;;;;;;3713681S;07718598E;;0;;;
HAR07;2018;12;3;5;32;0;-37.262033;77.306350;16.;6;4.13;24;;;;;;;;3715722S;07718381E;;0;;;
HAR07;2018;12;3;5;48;0;-37.294800;77.285683;20.;9;4.14;25;;;;;;;;3717688S;07717141E;;0;;;
HAR07;2018;12;3;6;4;0;-37.318483;77.280150;17.;10;4.13;26;;;;;;;;3719109S;07716809E;;0;;;
HAR07;2018;12;3;6;19;0;-37.304550;77.265250;42.;2;4.13;24.5;;;;;;;;3718273S;07715915E;;0;;;
HAR07;2018;12;3;6;35;0;-37.331833;77.278617;24.;8;4.14;25.5;;;;;;;;3719910S;07716717E;;0;;;
HAR07;2018;12;3;6;51;0;-37.339283;77.278150;0.0;2;4.12;25.5;;;;;;;;3720357S;07716689E;;0;;;
HAR07;2018;12;3;7;6;0;-37.371100;77.286400;11.;6;4.14;23.5;;;;;;;;3722266S;07717184E;;0;;;
HAR07;2018;12;3;7;22;0;-37.413850;77.310283;11.;1;4.15;24;;;;;;;;3724831S;07718617E;;0;;;
HAR07;2018;12;3;7;38;0;-37.434217;77.318867;16.;6;4.13;24;;;;;;;;3726053S;07719132E;;0;;;
HAR07;2018;12;3;7;54;0;-37.468283;77.335717;14.;5;4.13;24.5;;;;;;;;3728097S;07720143E;;0;;;
HAR07;2018;12;3;8;10;0;-37.509400;77.371200;11.;2;4.13;22.5;;;;;;;;3730564S;07722272E;;0;;;
HAR07;2018;12;3;8;25;0;-37.544933;77.389500;21.;2;4.13;22;;;;;;;;3732696S;07723370E;;0;;;
HAR07;2018;12;3;8;41;0;-37.586867;77.409567;15.;2;4.13;23;;;;;;;;3735212S;07724574E;;0;;;
HAR07;2018;12;3;8;57;0;-37.626267;77.428683;3.0;6;4.13;22.5;;;;;;;;3737576S;07725721E;;0;;;
HAR07;2018;12;3;9;12;0;-37.662533;77.458333;15.;3;4.13;24;;;;;;;;3739752S;07727500E;;0;;;
HAR07;2018;12;3;9;28;0;-37.701750;77.474350;18.;2;4.13;22.5;;;;;;;;3742105S;07728461E;;0;;;
HAR07;2018;12;3;9;43;0;-37.737850;77.478717;20.;9;4.14;22.5;;;;;;;;3744271S;07728723E;;0;;;
HAR07;2018;12;3;9;59;0;-37.779817;77.487200;13.;4;4.13;24;;;;;;;;3746789S;07729232E;;0;;;
HAR07;2018;12;3;10;15;0;-37.811033;77.493400;2.6;7;4.12;22.5;;;;;;;;3748662S;07729604E;;0;;;
HAR07;2018;12;3;10;30;0;-37.851850;77.512250;14.;9;4.13;20;;;;;;;;3751111S;07730735E;;0;;;
HAR07;2018;12;3;10;36;30;;;;;;;;;;;;1;;;;4.13;0;;;
HAR07;2018;12;3;10;37;16;;;;;;;;;;;;1;;;;4.14;0;;;
HAR07;2018;12;3;10;38;17;;;;;;;;;;;;1;;;;4.14;0;;;
HAR07;2018;12;3;10;46;0;-37.860333;77.504817;2.1;2;4.11;20;;;;;;;;3751620S;07730289E;;0;;;
HAR07;2018;12;3;10;51;5;;;;;;;;;;;;1;;;;4.13;0;;;
HAR07;2018;12;3;10;51;6;;;;;;;;;;;;1;;;;4.13;0;;;
HAR07;2018;12;3;10;55;59;;;;;;;;;;;;1;;;;4.13;0;;;
HAR07;2018;12;3;10;56;0;;;;;;;;;;;;1;;;;4.13;0;;;
HAR07;2018;12;3;11;0;55;;;;;;;;;;;;1;;;;4.13;0;;;
HAR07;2018;12;3;11;0;56;;;;;;;;;;;;1;;;;4.13;0;;;
HAR07;2018;12;3;11;1;0;-37.854283;77.524050;1.1;22;4.13;19;;;;;;;;3751257S;07731443E;;0;;;
HAR07;2018;12;3;11;1;3;;;;;;;;;;;;1;;;;4.13;0;;;
HAR07;2018;12;3;11;1;4;;;;;;;;;;;;1;;;;4.13;0;;;
HAR07;2018;12;3;11;1;5;;;;;;;;;;;;1;;;;4.13;0;;;
HAR07;2018;12;3;11;6;34;;;;;;;;;;;;1;;;;4.13;0;;;
HAR07;2018;12;3;11;6;35;;;;;;;;;;;;1;;;;4.13;0;;;
HAR07;2018;12;3;11;11;28;;;;;;;;;;;;1;;;;4.13;0;;;
HAR07;2018;12;3;11;11;29;;;;;;;;;;;;1;;;;4.13;0;;;
HAR07;2018;12;3;11;16;0;-37.854167;77.523983;1.3;10;4.13;18.5;;;;;;;;3751250S;07731439E;;0;;;
HAR07;2018;12;3;11;16;24;;;;;;;;;;;;1;;;;4.13;0;;;
HAR07;2018;12;3;11;16;25;;;;;;;;;;;;1;;;;4.13;0;;;
HAR07;2018;12;3;11;16;32;;;;;;;;;;;;1;;;;4.13;0;;;
HAR07;2018;12;3;11;16;33;;;;;;;;;;;;1;;;;4.13;0;;;
HAR07;2018;12;3;11;16;34;;;;;;;;;;;;1;;;;4.13;0;;;
HAR07;2018;12;3;11;21;47;;;;;;;;;;;;1;;;;4.13;0;;;
HAR07;2018;12;3;11;21;48;;;;;;;;;;;;1;;;;4.13;0;;;
HAR07;2018;12;3;11;26;42;;;;;;;;;;;;1;;;;4.13;0;;;
HAR07;2018;12;3;11;26;43;;;;;;;;;;;;1;;;;4.13;0;;;
HAR07;2018;12;3;11;31;38;;;;;;;;;;;;1;;;;4.13;0;;;
HAR07;2018;12;3;11;31;39;;;;;;;;;;;;1;;;;4.13;0;;;
HAR07;2018;12;3;11;31;46;;;;;;;;;;;;1;;;;4.13;0;;;
HAR07;2018;12;3;11;31;47;;;;;;;;;;;;1;;;;4.13;0;;;
HAR07;2018;12;3;11;31;48;;;;;;;;;;;;1;;;;4.13;0;;;
HAR07;2018;12;3;11;32;0;-37.853900;77.524150;3.9;9;4.13;23.5;;;;;;;;3751234S;07731449E;;0;;;
HAR07;2018;12;3;11;37;3;;;;;;;;;;;;1;;;;4.13;0;;;
HAR07;2018;12;3;11;37;4;;;;;;;;;;;;1;;;;4.13;0;;;
HAR07;2018;12;3;11;41;57;;;;;;;;;;;;1;;;;4.13;0;;;
HAR07;2018;12;3;11;41;58;;;;;;;;;;;;1;;;;4.13;0;;;
HAR07;2018;12;3;11;46;53;;;;;;;;;;;;1;;;;4.13;0;;;
HAR07;2018;12;3;11;46;54;;;;;;;;;;;;1;;;;4.13;0;;;
HAR07;2018;12;3;11;47;0;-37.854150;77.524033;0.2;17;4.13;23.5;;;;;;;;3751249S;07731442E;;0;;;
HAR07;2018;12;3;11;47;1;;;;;;;;;;;;1;;;;4.13;0;;;
HAR07;2018;12;3;11;47;2;;;;;;;;;;;;1;;;;4.13;0;;;
HAR07;2018;12;3;11;47;3;;;;;;;;;;;;1;;;;4.13;0;;;
HAR07;2018;12;3;11;52;26;;;;;;;;;;;;1;;;;4.13;0;;;
HAR07;2018;12;3;11;52;27;;;;;;;;;;;;1;;;;4.13;0;;;
HAR07;2018;12;3;11;57;20;;;;;;;;;;;;1;;;;4.13;0;;;
HAR07;2018;12;3;11;57;21;;;;;;;;;;;;1;;;;4.13;0;;;
HAR07;2018;12;3;12;2;0;-37.854150;77.523950;1.5;11;4.13;23;;;;;;;;3751249S;07731437E;;0;;;
HAR07;2018;12;3;12;2;16;;;;;;;;;;;;1;;;;4.13;0;;;
HAR07;2018;12;3;12;2;17;;;;;;;;;;;;1;;;;4.13;0;;;
HAR07;2018;12;3;12;2;24;;;;;;;;;;;;1;;;;4.13;0;;;
HAR07;2018;12;3;12;2;25;;;;;;;;;;;;1;;;;4.13;0;;;
HAR07;2018;12;3;12;2;26;;;;;;;;;;;;1;;;;4.13;0;;;
HAR07;2018;12;3;12;7;44;;;;;;;;;;;;1;;;;4.13;0;;;
HAR07;2018;12;3;12;7;45;;;;;;;;;;;;1;;;;4.13;0;;;
HAR07;2018;12;3;12;12;38;;;;;;;;;;;;1;;;;4.13;0;;;
HAR07;2018;12;3;12;12;39;;;;;;;;;;;;1;;;;4.13;0;;;
HAR07;2018;12;3;12;17;34;;;;;;;;;;;;1;;;;4.13;0;;;
HAR07;2018;12;3;12;17;35;;;;;;;;;;;;1;;;;4.13;0;;;
HAR07;2018;12;3;12;17;42;;;;;;;;;;;;1;;;;4.13;0;;;
HAR07;2018;12;3;12;17;43;;;;;;;;;;;;1;;;;4.13;0;;;
HAR07;2018;12;3;12;17;44;;;;;;;;;;;;1;;;;4.13;0;;;
HAR07;2018;12;3;12;18;0;-37.854183;77.523900;0.3;10;4.13;23.5;;;;;;;;3751251S;07731434E;;0;;;
HAR07;2018;12;3;12;23;1;;;;;;;;;;;;1;;;;4.12;0;;;
HAR07;2018;12;3;12;23;2;;;;;;;;;;;;1;;;;4.12;0;;;
HAR07;2018;12;3;12;27;55;;;;;;;;;;;;1;;;;4.13;0;;;
HAR07;2018;12;3;12;27;56;;;;;;;;;;;;1;;;;4.13;0;;;
HAR07;2018;12;3;12;32;51;;;;;;;;;;;;1;;;;4.13;0;;;
HAR07;2018;12;3;12;32;52;;;;;;;;;;;;1;;;;4.13;0;;;
HAR07;2018;12;3;12;32;59;;;;;;;;;;;;1;;;;4.13;0;;;
HAR07;2018;12;3;12;33;0;-37.854283;77.523933;0.1;14;4.12;23;;;;;;;;3751257S;07731436E;;0;;;
HAR07;2018;12;3;12;33;0;;;;;;;;;;;;1;;;;4.12;0;;;
HAR07;2018;12;3;12;33;1;;;;;;;;;;;;1;;;;4.12;0;;;
HAR07;2018;12;3;12;38;20;;;;;;;;;;;;1;;;;4.12;0;;;
HAR07;2018;12;3;12;38;21;;;;;;;;;;;;1;;;;4.12;0;;;
HAR07;2018;12;3;12;43;14;;;;;;;;;;;;1;;;;4.13;0;;;
HAR07;2018;12;3;12;43;15;;;;;;;;;;;;1;;;;4.12;0;;;
HAR07;2018;12;3;12;48;0;-37.854233;77.523867;0.4;6;4.13;20.5;;;;;;;;3751254S;07731432E;;0;;;
HAR07;2018;12;3;12;48;10;;;;;;;;;;;;1;;;;4.13;0;;;
HAR07;2018;12;3;12;48;11;;;;;;;;;;;;1;;;;4.13;0;;;
HAR07;2018;12;3;12;48;18;;;;;;;;;;;;1;;;;4.13;0;;;
HAR07;2018;12;3;12;48;19;;;;;;;;;;;;1;;;;4.13;0;;;
HAR07;2018;12;3;12;48;20;;;;;;;;;;;;1;;;;4.13;0;;;
HAR07;2018;12;3;12;53;31;;;;;;;;;;;;1;;;;4.12;0;;;
HAR07;2018;12;3;12;53;32;;;;;;;;;;;;1;;;;4.12;0;;;
HAR07;2018;12;3;13;3;0;-37.860317;77.507183;26.;7;4.13;15.5;;;;;;;;3751619S;07730431E;;0;;;
HAR07;2018;12;3;13;8;45;;;;;;;;;;;;1;;;;4.13;0;;;
HAR07;2018;12;3;13;8;46;;;;;;;;;;;;1;;;;4.13;0;;;
HAR07;2018;12;3;13;13;39;;;;;;;;;;;;1;;;;4.13;0;;;
HAR07;2018;12;3;13;13;40;;;;;;;;;;;;1;;;;4.13;0;;;
HAR07;2018;12;3;13;18;35;;;;;;;;;;;;1;;;;4.13;0;;;
HAR07;2018;12;3;13;18;36;;;;;;;;;;;;1;;;;4.13;0;;;
HAR07;2018;12;3;13;18;43;;;;;;;;;;;;1;;;;4.13;0;;;
HAR07;2018;12;3;13;18;44;;;;;;;;;;;;1;;;;4.13;0;;;
HAR07;2018;12;3;13;18;45;;;;;;;;;;;;1;;;;4.13;0;;;
HAR07;2018;12;3;13;19;0;-37.854583;77.524583;2.1;8;4.13;16;;;;;;;;3751275S;07731475E;;0;;;
HAR07;2018;12;3;13;24;0;;;;;;;;;;;;1;;;;4.13;0;;;
HAR07;2018;12;3;13;24;1;;;;;;;;;;;;1;;;;4.12;0;;;
HAR07;2018;12;3;13;28;54;;;;;;;;;;;;1;;;;4.13;0;;;
HAR07;2018;12;3;13;28;55;;;;;;;;;;;;1;;;;4.13;0;;;
HAR07;2018;12;3;13;33;50;;;;;;;;;;;;1;;;;4.13;0;;;
HAR07;2018;12;3;13;33;51;;;;;;;;;;;;1;;;;4.13;0;;;
HAR07;2018;12;3;13;33;58;;;;;;;;;;;;1;;;;4.13;0;;;
HAR07;2018;12;3;13;33;59;;;;;;;;;;;;1;;;;4.12;0;;;
HAR07;2018;12;3;13;34;0;;;;;;;;;;;;1;;;;4.12;0;;;
HAR07;2018;12;3;13;34;0;-37.853683;77.524117;1.3;7;4.12;17;;;;;;;;3751221S;07731447E;;0;;;
HAR07;2018;12;3;13;39;14;;;;;;;;;;;;1;;;;4.13;0;;;
HAR07;2018;12;3;13;39;15;;;;;;;;;;;;1;;;;4.12;0;;;
HAR07;2018;12;3;13;44;8;;;;;;;;;;;;1;;;;4.13;0;;;
HAR07;2018;12;3;13;44;9;;;;;;;;;;;;1;;;;4.12;0;;;
HAR07;2018;12;3;13;49;0;-37.853267;77.524433;2.2;8;4.12;16.5;;;;;;;;3751196S;07731466E;;0;;;
HAR07;2018;12;3;13;49;4;;;;;;;;;;;;1;;;;4.12;0;;;
HAR07;2018;12;3;13;49;5;;;;;;;;;;;;1;;;;4.12;0;;;
HAR07;2018;12;3;13;49;12;;;;;;;;;;;;1;;;;4.12;0;;;
HAR07;2018;12;3;13;49;13;;;;;;;;;;;;1;;;;4.12;0;;;
HAR07;2018;12;3;13;49;14;;;;;;;;;;;;1;;;;4.12;0;;;
HAR07;2018;12;3;13;54;27;;;;;;;;;;;;1;;;;4.12;0;;;
HAR07;2018;12;3;13;54;28;;;;;;;;;;;;1;;;;4.12;0;;;
HAR07;2018;12;3;13;59;22;;;;;;;;;;;;1;;;;4.12;0;;;
HAR07;2018;12;3;13;59;23;;;;;;;;;;;;1;;;;4.12;0;;;
HAR07;2018;12;3;14;4;0;-37.853767;77.524300;0.7;6;4.12;16;;;;;;;;3751226S;07731458E;;0;;;
HAR07;2018;12;3;14;4;18;;;;;;;;;;;;1;;;;4.12;0;;;
HAR07;2018;12;3;14;4;19;;;;;;;;;;;;1;;;;4.12;0;;;
HAR07;2018;12;3;14;4;26;;;;;;;;;;;;1;;;;4.12;0;;;
HAR07;2018;12;3;14;4;27;;;;;;;;;;;;1;;;;4.12;0;;;
HAR07;2018;12;3;14;4;28;;;;;;;;;;;;1;;;;4.12;0;;;
HAR07;2018;12;3;14;9;41;;;;;;;;;;;;1;;;;4.12;0;;;
HAR07;2018;12;3;14;9;42;;;;;;;;;;;;1;;;;4.12;0;;;
HAR07;2018;12;3;14;14;36;;;;;;;;;;;;1;;;;4.12;0;;;
HAR07;2018;12;3;14;14;37;;;;;;;;;;;;1;;;;4.12;0;;;
HAR07;2018;12;3;14;19;32;;;;;;;;;;;;1;;;;4.12;0;;;
HAR07;2018;12;3;14;19;33;;;;;;;;;;;;1;;;;4.12;0;;;
HAR07;2018;12;3;14;19;40;;;;;;;;;;;;1;;;;4.12;0;;;
HAR07;2018;12;3;14;19;41;;;;;;;;;;;;1;;;;4.12;0;;;
HAR07;2018;12;3;14;19;42;;;;;;;;;;;;1;;;;4.12;0;;;
HAR07;2018;12;3;14;20;0;-37.854167;77.523800;0.7;15;4.12;16;;;;;;;;3751250S;07731428E;;0;;;
HAR07;2018;12;3;14;25;3;;;;;;;;;;;;1;;;;4.12;0;;;
HAR07;2018;12;3;14;25;4;;;;;;;;;;;;1;;;;4.12;0;;;
HAR07;2018;12;3;14;29;57;;;;;;;;;;;;1;;;;4.12;0;;;
HAR07;2018;12;3;14;29;58;;;;;;;;;;;;1;;;;4.12;0;;;
HAR07;2018;12;3;14;34;53;;;;;;;;;;;;1;;;;4.12;0;;;
HAR07;2018;12;3;14;34;54;;;;;;;;;;;;1;;;;4.12;0;;;
HAR07;2018;12;3;14;35;0;-37.854617;77.523933;0.5;45;4.12;16.5;;;;;;;;3751277S;07731436E;;0;;;
HAR07;2018;12;3;14;35;1;;;;;;;;;;;;1;;;;4.12;0;;;
HAR07;2018;12;3;14;35;2;;;;;;;;;;;;1;;;;4.12;0;;;
HAR07;2018;12;3;14;35;3;;;;;;;;;;;;1;;;;4.12;0;;;
HAR07;2018;12;3;14;40;56;;;;;;;;;;;;1;;;;4.12;0;;;
HAR07;2018;12;3;14;45;50;;;;;;;;;;;;1;;;;4.12;0;;;
HAR07;2018;12;3;14;45;51;;;;;;;;;;;;1;;;;4.12;0;;;
HAR07;2018;12;3;14;50;46;;;;;;;;;;;;1;;;;4.12;0;;;
HAR07;2018;12;3;14;50;47;;;;;;;;;;;;1;;;;4.12;0;;;
HAR07;2018;12;3;14;50;55;;;;;;;;;;;;1;;;;4.12;0;;;
HAR07;2018;12;3;14;50;56;;;;;;;;;;;;1;;;;4.12;0;;;
HAR07;2018;12;3;14;50;57;;;;;;;;;;;;1;;;;4.12;0;;;
HAR07;2018;12;3;14;51;0;-37.854750;77.523950;1.1;12;4.12;16.5;;;;;;;;3751285S;07731437E;;0;;;
HAR07;2018;12;3;14;56;14;;;;;;;;;;;;1;;;;4.12;0;;;
HAR07;2018;12;3;14;56;15;;;;;;;;;;;;1;;;;4.12;0;;;
HAR07;2018;12;3;15;1;8;;;;;;;;;;;;1;;;;4.12;0;;;
HAR07;2018;12;3;15;1;9;;;;;;;;;;;;1;;;;4.12;0;;;
HAR07;2018;12;3;15;6;0;-37.854417;77.523900;1.2;16;4.12;16.5;;;;;;;;3751265S;07731434E;;0;;;
HAR07;2018;12;3;15;6;4;;;;;;;;;;;;1;;;;4.12;0;;;
HAR07;2018;12;3;15;6;5;;;;;;;;;;;;1;;;;4.12;0;;;
HAR07;2018;12;3;15;6;13;;;;;;;;;;;;1;;;;4.12;0;;;
HAR07;2018;12;3;15;6;14;;;;;;;;;;;;1;;;;4.12;0;;;
HAR07;2018;12;3;15;6;15;;;;;;;;;;;;1;;;;4.12;0;;;
HAR07;2018;12;3;15;11;38;;;;;;;;;;;;1;;;;4.12;0;;;
HAR07;2018;12;3;15;11;39;;;;;;;;;;;;1;;;;4.12;0;;;
HAR07;2018;12;3;15;16;32;;;;;;;;;;;;1;;;;4.12;0;;;
HAR07;2018;12;3;15;16;33;;;;;;;;;;;;1;;;;4.12;0;;;
HAR07;2018;12;3;15;21;28;;;;;;;;;;;;1;;;;4.12;0;;;
HAR07;2018;12;3;15;21;29;;;;;;;;;;;;1;;;;4.12;0;;;
HAR07;2018;12;3;15;21;36;;;;;;;;;;;;1;;;;4.12;0;;;
HAR07;2018;12;3;15;21;37;;;;;;;;;;;;1;;;;4.12;0;;;
HAR07;2018;12;3;15;21;38;;;;;;;;;;;;1;;;;4.12;0;;;
HAR07;2018;12;3;15;22;0;-37.854417;77.523850;0.1;47;4.12;16;;;;;;;;3751265S;07731431E;;0;;;
HAR07;2018;12;3;15;27;30;;;;;;;;;;;;1;;;;4.12;0;;;
HAR07;2018;12;3;15;27;31;;;;;;;;;;;;1;;;;4.12;0;;;
HAR07;2018;12;3;15;32;24;;;;;;;;;;;;1;;;;4.12;0;;;
HAR07;2018;12;3;15;32;25;;;;;;;;;;;;1;;;;4.12;0;;;
HAR07;2018;12;3;15;37;20;;;;;;;;;;;;1;;;;4.12;0;;;
HAR07;2018;12;3;15;37;21;;;;;;;;;;;;1;;;;4.12;0;;;
HAR07;2018;12;3;15;37;28;;;;;;;;;;;;1;;;;4.12;0;;;
HAR07;2018;12;3;15;37;29;;;;;;;;;;;;1;;;;4.12;0;;;
HAR07;2018;12;3;15;37;30;;;;;;;;;;;;1;;;;4.11;0;;;
HAR07;2018;12;3;15;38;0;-37.854300;77.523950;0.4;23;4.11;16.5;;;;;;;;3751258S;07731437E;;0;;;
HAR07;2018;12;3;15;42;59;;;;;;;;;;;;1;;;;4.11;0;;;
HAR07;2018;12;3;15;43;0;;;;;;;;;;;;1;;;;4.11;0;;;
HAR07;2018;12;3;15;47;54;;;;;;;;;;;;1;;;;4.11;0;;;
HAR07;2018;12;3;15;47;55;;;;;;;;;;;;1;;;;4.11;0;;;
HAR07;2018;12;3;15;52;50;;;;;;;;;;;;1;;;;4.11;0;;;
HAR07;2018;12;3;15;52;51;;;;;;;;;;;;1;;;;4.11;0;;;
HAR07;2018;12;3;15;52;58;;;;;;;;;;;;1;;;;4.11;0;;;
HAR07;2018;12;3;15;52;59;;;;;;;;;;;;1;;;;4.11;0;;;
HAR07;2018;12;3;15;53;0;;;;;;;;;;;;1;;;;4.11;0;;;
HAR07;2018;12;3;15;53;0;-37.854350;77.523967;0.9;14;4.11;16.5;;;;;;;;3751261S;07731438E;;0;;;
HAR07;2018;12;3;15;58;21;;;;;;;;;;;;1;;;;4.11;0;;;
HAR07;2018;12;3;15;58;22;;;;;;;;;;;;1;;;;4.11;0;;;
HAR07;2018;12;3;16;3;15;;;;;;;;;;;;1;;;;4.11;0;;;
HAR07;2018;12;3;16;3;16;;;;;;;;;;;;1;;;;4.11;0;;;
HAR07;2018;12;3;16;8;0;-37.854267;77.523950;0.9;6;4.11;17;;;;;;;;3751256S;07731437E;;0;;;
HAR07;2018;12;3;16;8;11;;;;;;;;;;;;1;;;;4.11;0;;;
HAR07;2018;12;3;16;8;12;;;;;;;;;;;;1;;;;4.11;0;;;
HAR07;2018;12;3;16;8;19;;;;;;;;;;;;1;;;;4.11;0;;;
HAR07;2018;12;3;16;8;20;;;;;;;;;;;;1;;;;4.11;0;;;
HAR07;2018;12;3;16;8;21;;;;;;;;;;;;1;;;;4.11;0;;;
HAR07;2018;12;3;16;13;31;;;;;;;;;;;;1;;;;4.11;0;;;
HAR07;2018;12;3;16;13;32;;;;;;;;;;;;1;;;;4.11;0;;;
HAR07;2018;12;3;16;18;26;;;;;;;;;;;;1;;;;4.11;0;;;
HAR07;2018;12;3;16;18;27;;;;;;;;;;;;1;;;;4.11;0;;;
HAR07;2018;12;3;16;23;0;-37.854217;77.524217;0.3;7;4.11;17;;;;;;;;3751253S;07731453E;;0;;;
HAR07;2018;12;3;16;23;22;;;;;;;;;;;;1;;;;4.11;0;;;
HAR07;2018;12;3;16;23;23;;;;;;;;;;;;1;;;;4.11;0;;;
HAR07;2018;12;3;16;23;30;;;;;;;;;;;;1;;;;4.11;0;;;
HAR07;2018;12;3;16;23;31;;;;;;;;;;;;1;;;;4.11;0;;;
HAR07;2018;12;3;16;23;32;;;;;;;;;;;;1;;;;4.11;0;;;
HAR07;2018;12;3;16;28;45;;;;;;;;;;;;1;;;;4.11;0;;;
HAR07;2018;12;3;16;28;46;;;;;;;;;;;;1;;;;4.11;0;;;
HAR07;2018;12;3;16;33;39;;;;;;;;;;;;1;;;;4.11;0;;;
HAR07;2018;12;3;16;33;40;;;;;;;;;;;;1;;;;4.11;0;;;
HAR07;2018;12;3;16;38;35;;;;;;;;;;;;1;;;;4.11;0;;;
HAR07;2018;12;3;16;38;36;;;;;;;;;;;;1;;;;4.11;0;;;
HAR07;2018;12;3;16;38;43;;;;;;;;;;;;1;;;;4.11;0;;;
HAR07;2018;12;3;16;38;44;;;;;;;;;;;;1;;;;4.11;0;;;
HAR07;2018;12;3;16;38;45;;;;;;;;;;;;1;;;;4.11;0;;;
HAR07;2018;12;3;16;39;0;-37.854083;77.524233;1.2;7;4.11;17.5;;;;;;;;3751245S;07731454E;;0;;;
HAR07;2018;12;3;16;43;58;;;;;;;;;;;;1;;;;4.11;0;;;
HAR07;2018;12;3;16;43;59;;;;;;;;;;;;1;;;;4.11;0;;;
HAR07;2018;12;3;16;48;53;;;;;;;;;;;;1;;;;4.11;0;;;
HAR07;2018;12;3;16;48;54;;;;;;;;;;;;1;;;;4.11;0;;;
HAR07;2018;12;3;16;53;49;;;;;;;;;;;;1;;;;4.11;0;;;
HAR07;2018;12;3;16;53;50;;;;;;;;;;;;1;;;;4.11;0;;;
HAR07;2018;12;3;16;53;57;;;;;;;;;;;;1;;;;4.11;0;;;
HAR07;2018;12;3;16;53;58;;;;;;;;;;;;1;;;;4.11;0;;;
HAR07;2018;12;3;16;53;59;;;;;;;;;;;;1;;;;4.11;0;;;
HAR07;2018;12;3;16;54;0;-37.854033;77.524333;1.4;7;4.11;17;;;;;;;;3751242S;07731460E;;0;;;
HAR07;2018;12;3;16;59;11;;;;;;;;;;;;1;;;;4.11;0;;;
HAR07;2018;12;3;16;59;12;;;;;;;;;;;;1;;;;4.11;0;;;
HAR07;2018;12;3;17;4;6;;;;;;;;;;;;1;;;;4.11;0;;;
HAR07;2018;12;3;17;4;7;;;;;;;;;;;;1;;;;4.11;0;;;
HAR07;2018;12;3;17;9;0;-37.853833;77.524617;0.1;10;4.1;17.5;;;;;;;;3751230S;07731477E;;0;;;
HAR07;2018;12;3;17;9;2;;;;;;;;;;;;1;;;;4.11;0;;;
HAR07;2018;12;3;17;9;3;;;;;;;;;;;;1;;;;4.11;0;;;
HAR07;2018;12;3;17;9;10;;;;;;;;;;;;1;;;;4.11;0;;;
HAR07;2018;12;3;17;9;11;;;;;;;;;;;;1;;;;4.11;0;;;
HAR07;2018;12;3;17;9;12;;;;;;;;;;;;1;;;;4.1;0;;;
HAR07;2018;12;3;17;14;28;;;;;;;;;;;;1;;;;4.11;0;;;
HAR07;2018;12;3;17;14;30;;;;;;;;;;;;1;;;;4.1;0;;;
HAR07;2018;12;3;17;19;22;;;;;;;;;;;;1;;;;4.11;0;;;
HAR07;2018;12;3;17;19;24;;;;;;;;;;;;1;;;;4.11;0;;;
HAR07;2018;12;3;17;24;0;-37.854850;77.523483;0.3;18;4.1;16.5;;;;;;;;3751291S;07731409E;;0;;;
HAR07;2018;12;3;17;24;18;;;;;;;;;;;;1;;;;4.11;0;;;
HAR07;2018;12;3;17;24;19;;;;;;;;;;;;1;;;;4.1;0;;;
HAR07;2018;12;3;17;24;26;;;;;;;;;;;;1;;;;4.11;0;;;
HAR07;2018;12;3;17;24;27;;;;;;;;;;;;1;;;;4.1;0;;;
HAR07;2018;12;3;17;24;28;;;;;;;;;;;;1;;;;4.1;0;;;
HAR07;2018;12;3;17;29;51;;;;;;;;;;;;1;;;;4.1;0;;;
HAR07;2018;12;3;17;29;52;;;;;;;;;;;;1;;;;4.1;0;;;
HAR07;2018;12;3;17;34;46;;;;;;;;;;;;1;;;;4.1;0;;;
HAR07;2018;12;3;17;34;47;;;;;;;;;;;;1;;;;4.1;0;;;
HAR07;2018;12;3;17;39;42;;;;;;;;;;;;1;;;;4.1;0;;;
HAR07;2018;12;3;17;39;43;;;;;;;;;;;;1;;;;4.1;0;;;
HAR07;2018;12;3;17;39;50;;;;;;;;;;;;1;;;;4.1;0;;;
HAR07;2018;12;3;17;39;51;;;;;;;;;;;;1;;;;4.1;0;;;
HAR07;2018;12;3;17;39;52;;;;;;;;;;;;1;;;;4.1;0;;;
HAR07;2018;12;3;17;40;0;-37.856167;77.523167;1.4;15;4.1;16.5;;;;;;;;3751370S;07731390E;;0;;;
HAR07;2018;12;3;17;45;13;;;;;;;;;;;;1;;;;4.1;0;;;
HAR07;2018;12;3;17;45;14;;;;;;;;;;;;1;;;;4.1;0;;;
HAR07;2018;12;3;17;50;7;;;;;;;;;;;;1;;;;4.1;0;;;
HAR07;2018;12;3;17;50;8;;;;;;;;;;;;1;;;;4.1;0;;;
HAR07;2018;12;3;17;55;0;-37.854633;77.523167;0.6;16;4.1;17;;;;;;;;3751278S;07731390E;;0;;;
HAR07;2018;12;3;17;55;3;;;;;;;;;;;;1;;;;4.1;0;;;
HAR07;2018;12;3;17;55;4;;;;;;;;;;;;1;;;;4.1;0;;;
HAR07;2018;12;3;17;55;11;;;;;;;;;;;;1;;;;4.1;0;;;
HAR07;2018;12;3;17;55;12;;;;;;;;;;;;1;;;;4.1;0;;;
HAR07;2018;12;3;17;55;13;;;;;;;;;;;;1;;;;4.1;0;;;
HAR07;2018;12;3;18;0;35;;;;;;;;;;;;1;;;;4.1;0;;;
HAR07;2018;12;3;18;0;36;;;;;;;;;;;;1;;;;4.1;0;;;
HAR07;2018;12;3;18;5;29;;;;;;;;;;;;1;;;;4.1;0;;;
HAR07;2018;12;3;18;5;30;;;;;;;;;;;;1;;;;4.1;0;;;
HAR07;2018;12;3;18;10;0;-37.855167;77.523533;0.4;11;4.1;17;;;;;;;;3751310S;07731412E;;0;;;
HAR07;2018;12;3;18;10;25;;;;;;;;;;;;1;;;;4.1;0;;;
HAR07;2018;12;3;18;10;26;;;;;;;;;;;;1;;;;4.1;0;;;
HAR07;2018;12;3;18;10;33;;;;;;;;;;;;1;;;;4.1;0;;;
HAR07;2018;12;3;18;10;34;;;;;;;;;;;;1;;;;4.1;0;;;
HAR07;2018;12;3;18;10;35;;;;;;;;;;;;1;;;;4.1;0;;;
HAR07;2018;12;3;18;15;51;;;;;;;;;;;;1;;;;4.1;0;;;
HAR07;2018;12;3;18;15;52;;;;;;;;;;;;1;;;;4.1;0;;;
HAR07;2018;12;3;18;20;45;;;;;;;;;;;;1;;;;4.1;0;;;
HAR07;2018;12;3;18;20;46;;;;;;;;;;;;1;;;;4.1;0;;;
HAR07;2018;12;3;18;25;41;;;;;;;;;;;;1;;;;4.1;0;;;
HAR07;2018;12;3;18;25;42;;;;;;;;;;;;1;;;;4.1;0;;;
HAR07;2018;12;3;18;25;49;;;;;;;;;;;;1;;;;4.1;0;;;
HAR07;2018;12;3;18;25;50;;;;;;;;;;;;1;;;;4.1;0;;;
HAR07;2018;12;3;18;25;51;;;;;;;;;;;;1;;;;4.1;0;;;
HAR07;2018;12;3;18;26;0;-37.855267;77.523333;1.1;19;4.1;17;;;;;;;;3751316S;07731400E;;0;;;
HAR07;2018;12;3;18;31;16;;;;;;;;;;;;1;;;;4.09;0;;;
HAR07;2018;12;3;18;31;17;;;;;;;;;;;;1;;;;4.09;0;;;
HAR07;2018;12;3;18;36;10;;;;;;;;;;;;1;;;;4.1;0;;;
HAR07;2018;12;3;18;36;11;;;;;;;;;;;;1;;;;4.09;0;;;
HAR07;2018;12;3;18;41;0;-37.854833;77.523550;0.4;23;4.09;17;;;;;;;;3751290S;07731413E;;0;;;
HAR07;2018;12;3;18;41;6;;;;;;;;;;;;1;;;;4.09;0;;;
HAR07;2018;12;3;18;41;7;;;;;;;;;;;;1;;;;4.1;0;;;
HAR07;2018;12;3;18;41;14;;;;;;;;;;;;1;;;;4.1;0;;;
HAR07;2018;12;3;18;41;15;;;;;;;;;;;;1;;;;4.09;0;;;
HAR07;2018;12;3;18;41;16;;;;;;;;;;;;1;;;;4.09;0;;;
HAR07;2018;12;3;18;46;44;;;;;;;;;;;;1;;;;4.09;0;;;
HAR07;2018;12;3;18;46;45;;;;;;;;;;;;1;;;;4.09;0;;;
HAR07;2018;12;3;18;51;39;;;;;;;;;;;;1;;;;4.09;0;;;
HAR07;2018;12;3;18;51;40;;;;;;;;;;;;1;;;;4.09;0;;;
HAR07;2018;12;3;18;56;35;;;;;;;;;;;;1;;;;4.09;0;;;
HAR07;2018;12;3;18;56;36;;;;;;;;;;;;1;;;;4.09;0;;;
HAR07;2018;12;3;18;56;43;;;;;;;;;;;;1;;;;4.09;0;;;
HAR07;2018;12;3;18;56;44;;;;;;;;;;;;1;;;;4.09;0;;;
HAR07;2018;12;3;18;56;45;;;;;;;;;;;;1;;;;4.09;0;;;
HAR07;2018;12;3;18;57;0;-37.851367;77.523817;0.7;37;4.09;17.5;;;;;;;;3751082S;07731429E;;0;;;
HAR07;2018;12;3;19;2;26;;;;;;;;;;;;1;;;;4.09;0;;;
HAR07;2018;12;3;19;2;27;;;;;;;;;;;;1;;;;4.09;0;;;
HAR07;2018;12;3;19;7;21;;;;;;;;;;;;1;;;;4.09;0;;;
HAR07;2018;12;3;19;7;22;;;;;;;;;;;;1;;;;4.09;0;;;
HAR07;2018;12;3;19;12;17;;;;;;;;;;;;1;;;;4.09;0;;;
HAR07;2018;12;3;19;12;18;;;;;;;;;;;;1;;;;4.09;0;;;
HAR07;2018;12;3;19;12;25;;;;;;;;;;;;1;;;;4.09;0;;;
HAR07;2018;12;3;19;12;26;;;;;;;;;;;;1;;;;4.09;0;;;
HAR07;2018;12;3;19;12;27;;;;;;;;;;;;1;;;;4.09;0;;;
HAR07;2018;12;3;19;13;0;-37.854300;77.523933;0.2;28;4.09;16.5;;;;;;;;3751258S;07731436E;;0;;;
HAR07;2018;12;3;19;18;0;;;;;;;;;;;;1;;;;4.09;0;;;
HAR07;2018;12;3;19;18;1;;;;;;;;;;;;1;;;;4.08;0;;;
HAR07;2018;12;3;19;22;55;;;;;;;;;;;;1;;;;4.09;0;;;
HAR07;2018;12;3;19;22;56;;;;;;;;;;;;1;;;;4.08;0;;;
HAR07;2018;12;3;19;27;51;;;;;;;;;;;;1;;;;4.09;0;;;
HAR07;2018;12;3;19;27;52;;;;;;;;;;;;1;;;;4.09;0;;;
HAR07;2018;12;3;19;27;59;;;;;;;;;;;;1;;;;4.09;0;;;
HAR07;2018;12;3;19;28;0;;;;;;;;;;;;1;;;;4.08;0;;;
HAR07;2018;12;3;19;28;0;-37.854350;77.523917;0.9;8;4.09;17;;;;;;;;3751261S;07731435E;;0;;;
HAR07;2018;12;3;19;28;1;;;;;;;;;;;;1;;;;4.09;0;;;
HAR07;2018;12;3;19;33;15;;;;;;;;;;;;1;;;;4.08;0;;;
HAR07;2018;12;3;19;33;16;;;;;;;;;;;;1;;;;4.08;0;;;
HAR07;2018;12;3;19;38;9;;;;;;;;;;;;1;;;;4.09;0;;;
HAR07;2018;12;3;19;38;10;;;;;;;;;;;;1;;;;4.08;0;;;
HAR07;2018;12;3;19;43;0;-37.854350;77.523917;0.6;18;4.08;17.5;;;;;;;;3751261S;07731435E;;0;;;
HAR07;2018;12;3;19;43;5;;;;;;;;;;;;1;;;;4.08;0;;;
HAR07;2018;12;3;19;43;6;;;;;;;;;;;;1;;;;4.08;0;;;
HAR07;2018;12;3;19;43;13;;;;;;;;;;;;1;;;;4.09;0;;;
HAR07;2018;12;3;19;43;14;;;;;;;;;;;;1;;;;4.08;0;;;
HAR07;2018;12;3;19;43;15;;;;;;;;;;;;1;;;;4.08;0;;;
HAR07;2018;12;3;19;48;39;;;;;;;;;;;;1;;;;4.08;0;;;
HAR07;2018;12;3;19;48;40;;;;;;;;;;;;1;;;;4.08;0;;;
HAR07;2018;12;3;19;53;33;;;;;;;;;;;;1;;;;4.08;0;;;
HAR07;2018;12;3;19;53;34;;;;;;;;;;;;1;;;;4.08;0;;;
HAR07;2018;12;3;19;58;29;;;;;;;;;;;;1;;;;4.08;0;;;
HAR07;2018;12;3;19;58;30;;;;;;;;;;;;1;;;;4.08;0;;;
HAR07;2018;12;3;19;58;37;;;;;;;;;;;;1;;;;4.08;0;;;
HAR07;2018;12;3;19;58;38;;;;;;;;;;;;1;;;;4.08;0;;;
HAR07;2018;12;3;19;58;39;;;;;;;;;;;;1;;;;4.08;0;;;
HAR07;2018;12;3;19;59;0;-37.854400;77.523867;0.3;17;4.08;18.5;;;;;;;;3751264S;07731432E;;0;;;
HAR07;2018;12;3;20;4;2;;;;;;;;;;;;1;;;;4.08;0;;;
HAR07;2018;12;3;20;4;3;;;;;;;;;;;;1;;;;4.08;0;;;
HAR07;2018;12;3;20;8;56;;;;;;;;;;;;1;;;;4.08;0;;;
HAR07;2018;12;3;20;8;57;;;;;;;;;;;;1;;;;4.08;0;;;
HAR07;2018;12;3;20;13;52;;;;;;;;;;;;1;;;;4.08;0;;;
HAR07;2018;12;3;20;13;53;;;;;;;;;;;;1;;;;4.08;0;;;
HAR07;2018;12;3;20;14;0;-37.854867;77.523833;0.1;29;4.08;19.5;;;;;;;;3751292S;07731430E;;0;;;
HAR07;2018;12;3;20;14;0;;;;;;;;;;;;1;;;;4.08;0;;;
HAR07;2018;12;3;20;14;1;;;;;;;;;;;;1;;;;4.08;0;;;
HAR07;2018;12;3;20;14;2;;;;;;;;;;;;1;;;;4.08;0;;;
HAR07;2018;12;3;20;19;38;;;;;;;;;;;;1;;;;4.08;0;;;
HAR07;2018;12;3;20;19;39;;;;;;;;;;;;1;;;;4.08;0;;;
HAR07;2018;12;3;20;24;32;;;;;;;;;;;;1;;;;4.08;0;;;
HAR07;2018;12;3;20;24;33;;;;;;;;;;;;1;;;;4.08;0;;;
HAR07;2018;12;3;20;29;28;;;;;;;;;;;;1;;;;4.08;0;;;
HAR07;2018;12;3;20;29;29;;;;;;;;;;;;1;;;;4.08;0;;;
HAR07;2018;12;3;20;29;36;;;;;;;;;;;;1;;;;4.08;0;;;
HAR07;2018;12;3;20;29;37;;;;;;;;;;;;1;;;;4.08;0;;;
HAR07;2018;12;3;20;29;38;;;;;;;;;;;;1;;;;4.08;0;;;
HAR07;2018;12;3;20;30;0;-37.854583;77.523767;1.3;39;4.08;19.5;;;;;;;;3751275S;07731426E;;0;;;
HAR07;2018;12;3;20;35;24;;;;;;;;;;;;1;;;;4.08;0;;;
HAR07;2018;12;3;20;35;25;;;;;;;;;;;;1;;;;4.08;0;;;
HAR07;2018;12;3;20;40;18;;;;;;;;;;;;1;;;;4.08;0;;;
HAR07;2018;12;3;20;40;19;;;;;;;;;;;;1;;;;4.08;0;;;
HAR07;2018;12;3;20;45;0;-37.857883;77.523417;12.;8;4.08;20;;;;;;;;3751473S;07731405E;;0;;;
HAR07;2018;12;3;20;45;14;;;;;;;;;;;;1;;;;4.08;0;;;
HAR07;2018;12;3;20;45;15;;;;;;;;;;;;1;;;;4.08;0;;;
HAR07;2018;12;3;20;45;22;;;;;;;;;;;;1;;;;4.08;0;;;
HAR07;2018;12;3;20;45;23;;;;;;;;;;;;1;;;;4.08;0;;;
HAR07;2018;12;3;20;45;24;;;;;;;;;;;;1;;;;4.08;0;;;
HAR07;2018;12;3;20;50;37;;;;;;;;;;;;1;;;;4.08;0;;;
HAR07;2018;12;3;20;50;38;;;;;;;;;;;;1;;;;4.08;0;;;
HAR07;2018;12;3;20;55;32;;;;;;;;;;;;1;;;;4.08;0;;;
HAR07;2018;12;3;20;55;33;;;;;;;;;;;;1;;;;4.08;0;;;
HAR07;2018;12;3;21;0;0;-37.855017;77.523883;2.0;11;4.08;18.5;;;;;;;;3751301S;07731433E;;0;;;
HAR07;2018;12;3;21;0;28;;;;;;;;;;;;1;;;;4.08;0;;;
HAR07;2018;12;3;21;0;29;;;;;;;;;;;;1;;;;4.08;0;;;
HAR07;2018;12;3;21;0;36;;;;;;;;;;;;1;;;;4.08;0;;;
HAR07;2018;12;3;21;0;37;;;;;;;;;;;;1;;;;4.08;0;;;
HAR07;2018;12;3;21;0;38;;;;;;;;;;;;1;;;;4.08;0;;;
HAR07;2018;12;3;21;5;54;;;;;;;;;;;;1;;;;4.08;0;;;
HAR07;2018;12;3;21;5;55;;;;;;;;;;;;1;;;;4.08;0;;;
HAR07;2018;12;3;21;10;49;;;;;;;;;;;;1;;;;4.08;0;;;
HAR07;2018;12;3;21;10;50;;;;;;;;;;;;1;;;;4.08;0;;;
HAR07;2018;12;3;21;15;45;;;;;;;;;;;;1;;;;4.08;0;;;
HAR07;2018;12;3;21;15;46;;;;;;;;;;;;1;;;;4.08;0;;;
HAR07;2018;12;3;21;15;53;;;;;;;;;;;;1;;;;4.08;0;;;
HAR07;2018;12;3;21;15;54;;;;;;;;;;;;1;;;;4.08;0;;;
HAR07;2018;12;3;21;15;55;;;;;;;;;;;;1;;;;4.08;0;;;
HAR07;2018;12;3;21;16;0;-37.854550;77.523967;2.2;8;4.08;17.5;;;;;;;;3751273S;07731438E;;0;;;
HAR07;2018;12;3;21;21;8;;;;;;;;;;;;1;;;;4.08;0;;;
HAR07;2018;12;3;21;21;9;;;;;;;;;;;;1;;;;4.08;0;;;
HAR07;2018;12;3;21;26;2;;;;;;;;;;;;1;;;;4.08;0;;;
HAR07;2018;12;3;21;26;3;;;;;;;;;;;;1;;;;4.08;0;;;
HAR07;2018;12;3;21;30;58;;;;;;;;;;;;1;;;;4.08;0;;;
HAR07;2018;12;3;21;30;59;;;;;;;;;;;;1;;;;4.08;0;;;
HAR07;2018;12;3;21;31;0;-37.854500;77.524000;0.2;16;4.08;17;;;;;;;;3751270S;07731440E;;0;;;
HAR07;2018;12;3;21;31;6;;;;;;;;;;;;1;;;;4.08;0;;;
HAR07;2018;12;3;21;31;7;;;;;;;;;;;;1;;;;4.08;0;;;
HAR07;2018;12;3;21;31;8;;;;;;;;;;;;1;;;;4.08;0;;;
HAR07;2018;12;3;21;36;31;;;;;;;;;;;;1;;;;4.08;0;;;
HAR07;2018;12;3;21;36;32;;;;;;;;;;;;1;;;;4.08;0;;;
HAR07;2018;12;3;21;41;25;;;;;;;;;;;;1;;;;4.08;0;;;
HAR07;2018;12;3;21;41;26;;;;;;;;;;;;1;;;;4.08;0;;;
HAR07;2018;12;3;21;46;0;-37.854433;77.524100;0.9;12;4.08;17;;;;;;;;3751266S;07731446E;;0;;;
HAR07;2018;12;3;21;46;21;;;;;;;;;;;;1;;;;4.08;0;;;
HAR07;2018;12;3;21;46;22;;;;;;;;;;;;1;;;;4.08;0;;;
HAR07;2018;12;3;21;46;29;;;;;;;;;;;;1;;;;4.08;0;;;
HAR07;2018;12;3;21;46;30;;;;;;;;;;;;1;;;;4.08;0;;;
HAR07;2018;12;3;21;46;31;;;;;;;;;;;;1;;;;4.08;0;;;
HAR07;2018;12;3;21;51;49;;;;;;;;;;;;1;;;;4.08;0;;;
HAR07;2018;12;3;21;51;50;;;;;;;;;;;;1;;;;4.08;0;;;
HAR07;2018;12;3;21;56;43;;;;;;;;;;;;1;;;;4.08;0;;;
HAR07;2018;12;3;21;56;44;;;;;;;;;;;;1;;;;4.08;0;;;
HAR07;2018;12;3;22;1;39;;;;;;;;;;;;1;;;;4.08;0;;;
HAR07;2018;12;3;22;1;40;;;;;;;;;;;;1;;;;4.08;0;;;
HAR07;2018;12;3;22;1;47;;;;;;;;;;;;1;;;;4.08;0;;;
HAR07;2018;12;3;22;1;48;;;;;;;;;;;;1;;;;4.07;0;;;
HAR07;2018;12;3;22;1;49;;;;;;;;;;;;1;;;;4.08;0;;;
HAR07;2018;12;3;22;2;0;-37.854450;77.524117;1.0;13;4.08;17;;;;;;;;3751267S;07731447E;;0;;;
HAR07;2018;12;3;22;7;8;;;;;;;;;;;;1;;;;4.08;0;;;
HAR07;2018;12;3;22;7;9;;;;;;;;;;;;1;;;;4.07;0;;;
HAR07;2018;12;3;22;12;3;;;;;;;;;;;;1;;;;4.08;0;;;
HAR07;2018;12;3;22;12;4;;;;;;;;;;;;1;;;;4.08;0;;;
HAR07;2018;12;3;22;16;59;;;;;;;;;;;;1;;;;4.08;0;;;
HAR07;2018;12;3;22;17;0;-37.854167;77.523967;0.6;13;4.07;17.5;;;;;;;;3751250S;07731438E;;0;;;
HAR07;2018;12;3;22;17;0;;;;;;;;;;;;1;;;;4.08;0;;;
HAR07;2018;12;3;22;17;7;;;;;;;;;;;;1;;;;4.08;0;;;
HAR07;2018;12;3;22;17;8;;;;;;;;;;;;1;;;;4.07;0;;;
HAR07;2018;12;3;22;17;9;;;;;;;;;;;;1;;;;4.07;0;;;
HAR07;2018;12;3;22;22;28;;;;;;;;;;;;1;;;;4.07;0;;;
HAR07;2018;12;3;22;22;29;;;;;;;;;;;;1;;;;4.07;0;;;
HAR07;2018;12;3;22;27;22;;;;;;;;;;;;1;;;;4.08;0;;;
HAR07;2018;12;3;22;27;23;;;;;;;;;;;;1;;;;4.07;0;;;
HAR07;2018;12;3;22;32;0;-37.854500;77.524233;1.1;8;4.07;18;;;;;;;;3751270S;07731454E;;0;;;
HAR07;2018;12;3;22;32;18;;;;;;;;;;;;1;;;;4.08;0;;;
HAR07;2018;12;3;22;32;19;;;;;;;;;;;;1;;;;4.07;0;;;
HAR07;2018;12;3;22;32;26;;;;;;;;;;;;1;;;;4.07;0;;;
HAR07;2018;12;3;22;32;27;;;;;;;;;;;;1;;;;4.07;0;;;
HAR07;2018;12;3;22;32;28;;;;;;;;;;;;1;;;;4.07;0;;;
HAR07;2018;12;3;22;37;43;;;;;;;;;;;;1;;;;4.07;0;;;
HAR07;2018;12;3;22;37;44;;;;;;;;;;;;1;;;;4.07;0;;;
HAR07;2018;12;3;22;42;37;;;;;;;;;;;;1;;;;4.07;0;;;
HAR07;2018;12;3;22;42;38;;;;;;;;;;;;1;;;;4.07;0;;;
HAR07;2018;12;3;22;47;33;;;;;;;;;;;;1;;;;4.07;0;;;
HAR07;2018;12;3;22;47;34;;;;;;;;;;;;1;;;;4.07;0;;;
HAR07;2018;12;3;22;47;41;;;;;;;;;;;;1;;;;4.07;0;;;
HAR07;2018;12;3;22;47;42;;;;;;;;;;;;1;;;;4.07;0;;;
HAR07;2018;12;3;22;47;43;;;;;;;;;;;;1;;;;4.07;0;;;
HAR07;2018;12;3;22;48;0;-37.854500;77.524133;0.3;23;4.07;18.5;;;;;;;;3751270S;07731448E;;0;;;
HAR07;2018;12;3;22;53;12;;;;;;;;;;;;1;;;;4.07;0;;;
HAR07;2018;12;3;22;53;13;;;;;;;;;;;;1;;;;4.07;0;;;
HAR07;2018;12;3;22;58;7;;;;;;;;;;;;1;;;;4.07;0;;;
HAR07;2018;12;3;22;58;8;;;;;;;;;;;;1;;;;4.07;0;;;
HAR07;2018;12;3;23;3;0;-37.854500;77.523983;0.9;12;4.07;17;;;;;;;;3751270S;07731439E;;0;;;
HAR07;2018;12;3;23;3;3;;;;;;;;;;;;1;;;;4.07;0;;;
HAR07;2018;12;3;23;3;4;;;;;;;;;;;;1;;;;4.07;0;;;
HAR07;2018;12;3;23;3;11;;;;;;;;;;;;1;;;;4.07;0;;;
HAR07;2018;12;3;23;3;12;;;;;;;;;;;;1;;;;4.07;0;;;
HAR07;2018;12;3;23;3;13;;;;;;;;;;;;1;;;;4.07;0;;;
HAR07;2018;12;3;23;8;31;;;;;;;;;;;;1;;;;4.07;0;;;
HAR07;2018;12;3;23;8;32;;;;;;;;;;;;1;;;;4.07;0;;;
HAR07;2018;12;3;23;13;25;;;;;;;;;;;;1;;;;4.07;0;;;
HAR07;2018;12;3;23;13;26;;;;;;;;;;;;1;;;;4.07;0;;;
HAR07;2018;12;3;23;18;0;-37.854283;77.524283;0.7;7;4.07;18.5;;;;;;;;3751257S;07731457E;;0;;;
HAR07;2018;12;3;23;18;21;;;;;;;;;;;;1;;;;4.07;0;;;
HAR07;2018;12;3;23;18;22;;;;;;;;;;;;1;;;;4.07;0;;;
HAR07;2018;12;3;23;18;29;;;;;;;;;;;;1;;;;4.07;0;;;
HAR07;2018;12;3;23;18;30;;;;;;;;;;;;1;;;;4.07;0;;;
HAR07;2018;12;3;23;18;31;;;;;;;;;;;;1;;;;4.07;0;;;
HAR07;2018;12;3;23;23;43;;;;;;;;;;;;1;;;;4.07;0;;;
HAR07;2018;12;3;23;23;44;;;;;;;;;;;;1;;;;4.07;0;;;
HAR07;2018;12;3;23;28;38;;;;;;;;;;;;1;;;;4.07;0;;;
HAR07;2018;12;3;23;28;39;;;;;;;;;;;;1;;;;4.07;0;;;
HAR07;2018;12;3;23;33;34;;;;;;;;;;;;1;;;;4.07;0;;;
HAR07;2018;12;3;23;33;35;;;;;;;;;;;;1;;;;4.07;0;;;
HAR07;2018;12;3;23;33;42;;;;;;;;;;;;1;;;;4.07;0;;;
HAR07;2018;12;3;23;33;43;;;;;;;;;;;;1;;;;4.07;0;;;
HAR07;2018;12;3;23;33;44;;;;;;;;;;;;1;;;;4.07;0;;;
HAR07;2018;12;3;23;34;0;-37.854683;77.524067;0.3;37;4.07;17.5;;;;;;;;3751281S;07731444E;;0;;;
HAR07;2018;12;3;23;39;25;;;;;;;;;;;;1;;;;4.07;0;;;
HAR07;2018;12;3;23;39;26;;;;;;;;;;;;1;;;;4.07;0;;;
HAR07;2018;12;3;23;44;20;;;;;;;;;;;;1;;;;4.07;0;;;
HAR07;2018;12;3;23;44;21;;;;;;;;;;;;1;;;;4.07;0;;;
HAR07;2018;12;3;23;49;0;-37.857767;77.525150;0.1;24;4.07;19;;;;;;;;3751466S;07731509E;;0;;;
HAR07;2018;12;3;23;49;16;;;;;;;;;;;;1;;;;4.07;0;;;
HAR07;2018;12;3;23;49;17;;;;;;;;;;;;1;;;;4.07;0;;;
HAR07;2018;12;3;23;49;24;;;;;;;;;;;;1;;;;4.07;0;;;
HAR07;2018;12;3;23;49;25;;;;;;;;;;;;1;;;;4.07;0;;;
HAR07;2018;12;3;23;49;26;;;;;;;;;;;;1;;;;4.07;0;;;
HAR07;2018;12;3;23;54;56;;;;;;;;;;;;1;;;;4.06;0;;;
HAR07;2018;12;3;23;54;57;;;;;;;;;;;;1;;;;4.06;0;;;
HAR07;2018;12;3;23;59;50;;;;;;;;;;;;1;;;;4.07;0;;;
HAR07;2018;12;3;23;59;51;;;;;;;;;;;;1;;;;4.07;0;;;
HAR07;2018;12;4;0;4;47;;;;;;;;;;;;1;;;;4.07;0;;;
HAR07;2018;12;4;0;4;54;;;;;;;;;;;;1;;;;4.07;0;;;
HAR07;2018;12;4;0;4;56;;;;;;;;;;;;1;;;;4.06;0;;;
HAR07;2018;12;4;0;4;57;;;;;;;;;;;;1;;;;4.06;0;;;
HAR07;2018;12;4;0;5;0;-37.852983;77.524017;0.2;25;4.06;20;;;;;;;;3751179S;07731441E;;0;;;
HAR07;2018;12;4;0;10;29;;;;;;;;;;;;1;;;;4.06;0;;;
HAR07;2018;12;4;0;10;30;;;;;;;;;;;;1;;;;4.06;0;;;
HAR07;2018;12;4;0;15;23;;;;;;;;;;;;1;;;;4.07;0;;;
HAR07;2018;12;4;0;15;24;;;;;;;;;;;;1;;;;4.06;0;;;
HAR07;2018;12;4;0;20;19;;;;;;;;;;;;1;;;;4.06;0;;;
HAR07;2018;12;4;0;20;20;;;;;;;;;;;;1;;;;4.06;0;;;
HAR07;2018;12;4;0;20;27;;;;;;;;;;;;1;;;;4.06;0;;;
HAR07;2018;12;4;0;20;28;;;;;;;;;;;;1;;;;4.06;0;;;
HAR07;2018;12;4;0;20;29;;;;;;;;;;;;1;;;;4.06;0;;;
HAR07;2018;12;4;0;21;0;-37.854217;77.523817;0.0;49;4.06;20.5;;;;;;;;3751253S;07731429E;;0;;;
HAR07;2018;12;4;0;26;23;;;;;;;;;;;;1;;;;4.06;0;;;
HAR07;2018;12;4;0;26;24;;;;;;;;;;;;1;;;;4.06;0;;;
HAR07;2018;12;4;0;31;18;;;;;;;;;;;;1;;;;4.06;0;;;
HAR07;2018;12;4;0;31;19;;;;;;;;;;;;1;;;;4.06;0;;;
HAR07;2018;12;4;0;36;0;-37.854267;77.523900;1.0;13;4.06;21;;;;;;;;3751256S;07731434E;;0;;;
HAR07;2018;12;4;0;36;14;;;;;;;;;;;;1;;;;4.06;0;;;
HAR07;2018;12;4;0;36;15;;;;;;;;;;;;1;;;;4.06;0;;;
HAR07;2018;12;4;0;36;22;;;;;;;;;;;;1;;;;4.06;0;;;
HAR07;2018;12;4;0;36;23;;;;;;;;;;;;1;;;;4.06;0;;;
HAR07;2018;12;4;0;36;24;;;;;;;;;;;;1;;;;4.06;0;;;
HAR07;2018;12;4;0;41;43;;;;;;;;;;;;1;;;;4.06;0;;;
HAR07;2018;12;4;0;41;44;;;;;;;;;;;;1;;;;4.06;0;;;
HAR07;2018;12;4;0;46;37;;;;;;;;;;;;1;;;;4.06;0;;;
HAR07;2018;12;4;0;46;38;;;;;;;;;;;;1;;;;4.06;0;;;
HAR07;2018;12;4;0;51;33;;;;;;;;;;;;1;;;;4.06;0;;;
HAR07;2018;12;4;0;51;34;;;;;;;;;;;;1;;;;4.06;0;;;
HAR07;2018;12;4;0;51;41;;;;;;;;;;;;1;;;;4.06;0;;;
HAR07;2018;12;4;0;51;42;;;;;;;;;;;;1;;;;4.06;0;;;
HAR07;2018;12;4;0;51;43;;;;;;;;;;;;1;;;;4.06;0;;;
HAR07;2018;12;4;0;52;0;-37.854367;77.523950;0.2;41;4.06;21;;;;;;;;3751262S;07731437E;;0;;;
HAR07;2018;12;4;0;57;30;;;;;;;;;;;;1;;;;4.06;0;;;
HAR07;2018;12;4;0;57;31;;;;;;;;;;;;1;;;;4.06;0;;;
HAR07;2018;12;4;1;2;24;;;;;;;;;;;;1;;;;4.06;0;;;
HAR07;2018;12;4;1;2;25;;;;;;;;;;;;1;;;;4.06;0;;;
HAR07;2018;12;4;1;7;0;-37.854300;77.524017;0.4;7;4.06;21.5;;;;;;;;3751258S;07731441E;;0;;;
HAR07;2018;12;4;1;7;20;;;;;;;;;;;;1;;;;4.06;0;;;
HAR07;2018;12;4;1;7;21;;;;;;;;;;;;1;;;;4.06;0;;;
HAR07;2018;12;4;1;7;28;;;;;;;;;;;;1;;;;4.06;0;;;
HAR07;2018;12;4;1;7;29;;;;;;;;;;;;1;;;;4.06;0;;;
HAR07;2018;12;4;1;7;30;;;;;;;;;;;;1;;;;4.06;0;;;
HAR07;2018;12;4;1;12;44;;;;;;;;;;;;1;;;;4.06;0;;;
HAR07;2018;12;4;1;12;45;;;;;;;;;;;;1;;;;4.05;0;;;
HAR07;2018;12;4;1;17;38;;;;;;;;;;;;1;;;;4.06;0;;;
HAR07;2018;12;4;1;17;39;;;;;;;;;;;;1;;;;4.06;0;;;
HAR07;2018;12;4;1;22;0;-37.855150;77.524033;0.4;8;4.06;21;;;;;;;;3751309S;07731442E;;0;;;
HAR07;2018;12;4;1;22;34;;;;;;;;;;;;1;;;;4.06;0;;;
HAR07;2018;12;4;1;22;35;;;;;;;;;;;;1;;;;4.06;0;;;
HAR07;2018;12;4;1;22;42;;;;;;;;;;;;1;;;;4.06;0;;;
HAR07;2018;12;4;1;22;43;;;;;;;;;;;;1;;;;4.06;0;;;
HAR07;2018;12;4;1;22;44;;;;;;;;;;;;1;;;;4.06;0;;;
HAR07;2018;12;4;1;27;58;;;;;;;;;;;;1;;;;4.06;0;;;
HAR07;2018;12;4;1;27;59;;;;;;;;;;;;1;;;;4.06;0;;;
HAR07;2018;12;4;1;38;0;-37.854333;77.503083;1.0;8;4.06;17;;;;;;;;3751260S;07730185E;;0;;;
HAR07;2018;12;4;1;48;11;;;;;;;;;;;;1;;;;4.06;0;;;
HAR07;2018;12;4;1;53;0;-37.857067;77.523033;3.3;19;4.06;15;;;;;;;;3751424S;07731382E;;0;;;
HAR07;2018;12;4;1;53;2;;;;;;;;;;;;1;;;;4.06;0;;;
HAR07;2018;12;4;1;53;3;;;;;;;;;;;;1;;;;4.06;0;;;
HAR07;2018;12;4;1;53;10;;;;;;;;;;;;1;;;;4.06;0;;;
HAR07;2018;12;4;1;53;11;;;;;;;;;;;;1;;;;4.06;0;;;
HAR07;2018;12;4;1;53;12;;;;;;;;;;;;1;;;;4.06;0;;;
HAR07;2018;12;4;1;58;38;;;;;;;;;;;;1;;;;4.06;0;;;
HAR07;2018;12;4;1;58;39;;;;;;;;;;;;1;;;;4.06;0;;;
HAR07;2018;12;4;2;3;32;;;;;;;;;;;;1;;;;4.06;0;;;
HAR07;2018;12;4;2;3;33;;;;;;;;;;;;1;;;;4.06;0;;;
HAR07;2018;12;4;2;8;0;-37.857000;77.523767;2.0;10;4.06;18.5;;;;;;;;3751420S;07731426E;;0;;;
HAR07;2018;12;4;2;8;28;;;;;;;;;;;;1;;;;4.06;0;;;
HAR07;2018;12;4;2;8;29;;;;;;;;;;;;1;;;;4.06;0;;;
HAR07;2018;12;4;2;8;36;;;;;;;;;;;;1;;;;4.06;0;;;
HAR07;2018;12;4;2;8;37;;;;;;;;;;;;1;;;;4.06;0;;;
HAR07;2018;12;4;2;8;38;;;;;;;;;;;;1;;;;4.06;0;;;
HAR07;2018;12;4;2;13;54;;;;;;;;;;;;1;;;;4.05;0;;;
HAR07;2018;12;4;2;13;55;;;;;;;;;;;;1;;;;4.05;0;;;
HAR07;2018;12;4;2;18;48;;;;;;;;;;;;1;;;;4.06;0;;;
HAR07;2018;12;4;2;18;49;;;;;;;;;;;;1;;;;4.05;0;;;
HAR07;2018;12;4;2;23;44;;;;;;;;;;;;1;;;;4.06;0;;;
HAR07;2018;12;4;2;23;45;;;;;;;;;;;;1;;;;4.06;0;;;
HAR07;2018;12;4;2;23;52;;;;;;;;;;;;1;;;;4.05;0;;;
HAR07;2018;12;4;2;23;53;;;;;;;;;;;;1;;;;4.05;0;;;
HAR07;2018;12;4;2;23;54;;;;;;;;;;;;1;;;;4.05;0;;;
HAR07;2018;12;4;2;24;0;-37.854517;77.524083;0.2;19;4.05;19.5;;;;;;;;3751271S;07731445E;;0;;;
HAR07;2018;12;4;2;29;18;;;;;;;;;;;;1;;;;4.06;0;;;
HAR07;2018;12;4;2;29;19;;;;;;;;;;;;1;;;;4.05;0;;;
HAR07;2018;12;4;2;34;13;;;;;;;;;;;;1;;;;4.05;0;;;
HAR07;2018;12;4;2;34;14;;;;;;;;;;;;1;;;;4.05;0;;;
HAR07;2018;12;4;2;39;0;-37.856233;77.523783;0.3;25;4.05;17.5;;;;;;;;3751374S;07731427E;;0;;;
HAR07;2018;12;4;2;39;9;;;;;;;;;;;;1;;;;4.06;0;;;
HAR07;2018;12;4;2;39;10;;;;;;;;;;;;1;;;;4.05;0;;;
HAR07;2018;12;4;2;39;17;;;;;;;;;;;;1;;;;4.06;0;;;
HAR07;2018;12;4;2;39;18;;;;;;;;;;;;1;;;;4.05;0;;;
HAR07;2018;12;4;2;39;19;;;;;;;;;;;;1;;;;4.05;0;;;
HAR07;2018;12;4;2;44;50;;;;;;;;;;;;1;;;;4.05;0;;;
HAR07;2018;12;4;2;44;51;;;;;;;;;;;;1;;;;4.05;0;;;
HAR07;2018;12;4;2;49;44;;;;;;;;;;;;1;;;;4.05;0;;;
HAR07;2018;12;4;2;49;45;;;;;;;;;;;;1;;;;4.05;0;;;
HAR07;2018;12;4;2;54;40;;;;;;;;;;;;1;;;;4.05;0;;;
HAR07;2018;12;4;2;54;41;;;;;;;;;;;;1;;;;4.05;0;;;
HAR07;2018;12;4;2;54;48;;;;;;;;;;;;1;;;;4.05;0;;;
HAR07;2018;12;4;2;54;49;;;;;;;;;;;;1;;;;4.05;0;;;
HAR07;2018;12;4;2;54;50;;;;;;;;;;;;1;;;;4.05;0;;;
HAR07;2018;12;4;2;55;0;-37.855250;77.523883;1.6;25;4.05;20.5;;;;;;;;3751315S;07731433E;;0;;;
HAR07;2018;12;4;3;0;21;;;;;;;;;;;;1;;;;4.05;0;;;
HAR07;2018;12;4;3;0;22;;;;;;;;;;;;1;;;;4.05;0;;;
HAR07;2018;12;4;3;5;16;;;;;;;;;;;;1;;;;4.05;0;;;
HAR07;2018;12;4;3;5;17;;;;;;;;;;;;1;;;;4.05;0;;;
HAR07;2018;12;4;3;10;0;-37.856717;77.522933;0.3;17;4.05;22;;;;;;;;3751403S;07731376E;;0;;;
HAR07;2018;12;4;3;10;12;;;;;;;;;;;;1;;;;4.05;0;;;
HAR07;2018;12;4;3;10;13;;;;;;;;;;;;1;;;;4.05;0;;;
HAR07;2018;12;4;3;10;20;;;;;;;;;;;;1;;;;4.05;0;;;
HAR07;2018;12;4;3;10;21;;;;;;;;;;;;1;;;;4.05;0;;;
HAR07;2018;12;4;3;10;22;;;;;;;;;;;;1;;;;4.05;0;;;
HAR07;2018;12;4;3;15;45;;;;;;;;;;;;1;;;;4.05;0;;;
HAR07;2018;12;4;3;15;46;;;;;;;;;;;;1;;;;4.05;0;;;
HAR07;2018;12;4;3;20;39;;;;;;;;;;;;1;;;;4.05;0;;;
HAR07;2018;12;4;3;20;40;;;;;;;;;;;;1;;;;4.05;0;;;
HAR07;2018;12;4;3;25;35;;;;;;;;;;;;1;;;;4.05;0;;;
HAR07;2018;12;4;3;25;36;;;;;;;;;;;;1;;;;4.05;0;;;
HAR07;2018;12;4;3;25;43;;;;;;;;;;;;1;;;;4.05;0;;;
HAR07;2018;12;4;3;25;44;;;;;;;;;;;;1;;;;4.05;0;;;
HAR07;2018;12;4;3;25;45;;;;;;;;;;;;1;;;;4.05;0;;;
HAR07;2018;12;4;3;26;0;-37.853050;77.524533;0.4;17;4.05;23;;;;;;;;3751183S;07731472E;;0;;;
HAR07;2018;12;4;3;31;7;;;;;;;;;;;;1;;;;4.05;0;;;
HAR07;2018;12;4;3;31;8;;;;;;;;;;;;1;;;;4.05;0;;;
HAR07;2018;12;4;3;36;2;;;;;;;;;;;;1;;;;4.05;0;;;
HAR07;2018;12;4;3;36;3;;;;;;;;;;;;1;;;;4.05;0;;;
HAR07;2018;12;4;3;40;58;;;;;;;;;;;;1;;;;4.05;0;;;
HAR07;2018;12;4;3;40;59;;;;;;;;;;;;1;;;;4.05;0;;;
HAR07;2018;12;4;3;41;0;-37.854333;77.523933;0.2;41;4.05;23;;;;;;;;3751260S;07731436E;;0;;;
HAR07;2018;12;4;3;41;6;;;;;;;;;;;;1;;;;4.05;0;;;
HAR07;2018;12;4;3;41;7;;;;;;;;;;;;1;;;;4.05;0;;;
HAR07;2018;12;4;3;41;8;;;;;;;;;;;;1;;;;4.05;0;;;
HAR07;2018;12;4;3;46;54;;;;;;;;;;;;1;;;;4.05;0;;;
HAR07;2018;12;4;3;46;55;;;;;;;;;;;;1;;;;4.05;0;;;
HAR07;2018;12;4;3;51;48;;;;;;;;;;;;1;;;;4.05;0;;;
HAR07;2018;12;4;3;51;49;;;;;;;;;;;;1;;;;4.05;0;;;
HAR07;2018;12;4;3;56;44;;;;;;;;;;;;1;;;;4.05;0;;;
HAR07;2018;12;4;3;56;45;;;;;;;;;;;;1;;;;4.05;0;;;
HAR07;2018;12;4;3;56;52;;;;;;;;;;;;1;;;;4.05;0;;;
HAR07;2018;12;4;3;56;53;;;;;;;;;;;;1;;;;4.05;0;;;
HAR07;2018;12;4;3;56;54;;;;;;;;;;;;1;;;;4.05;0;;;
HAR07;2018;12;4;3;57;0;-37.854133;77.524100;0.3;13;4.05;23.5;;;;;;;;3751248S;07731446E;;0;;;
HAR07;2018;12;4;4;2;13;;;;;;;;;;;;1;;;;4.05;0;;;
HAR07;2018;12;4;4;2;14;;;;;;;;;;;;1;;;;4.05;0;;;
HAR07;2018;12;4;4;7;8;;;;;;;;;;;;1;;;;4.05;0;;;
HAR07;2018;12;4;4;7;9;;;;;;;;;;;;1;;;;4.05;0;;;
HAR07;2018;12;4;4;12;0;-37.852950;77.507400;32.;10;4.05;19.5;;;;;;;;3751177S;07730444E;;0;;;
HAR07;2018;12;4;4;27;0;-37.870583;77.535600;25.;8;4.06;17.5;;;;;;;;3752235S;07732136E;;0;;;
HAR07;2018;12;4;4;37;40;;;;;;;;;;;;1;;;;4.07;0;;;
HAR07;2018;12;4;4;37;41;;;;;;;;;;;;1;;;;4.07;0;;;
HAR07;2018;12;4;4;42;34;;;;;;;;;;;;1;;;;4.07;0;;;
HAR07;2018;12;4;4;42;35;;;;;;;;;;;;1;;;;4.07;0;;;
HAR07;2018;12;4;4;42;42;;;;;;;;;;;;1;;;;4.07;0;;;
HAR07;2018;12;4;4;42;43;;;;;;;;;;;;1;;;;4.07;0;;;
HAR07;2018;12;4;4;42;44;;;;;;;;;;;;1;;;;4.07;0;;;
HAR07;2018;12;4;4;43;0;-37.853600;77.523083;0.3;17;4.07;19;;;;;;;;3751216S;07731385E;;0;;;
HAR07;2018;12;4;4;48;6;;;;;;;;;;;;1;;;;4.06;0;;;
HAR07;2018;12;4;4;48;7;;;;;;;;;;;;1;;;;4.07;0;;;
HAR07;2018;12;4;4;53;1;;;;;;;;;;;;1;;;;4.07;0;;;
HAR07;2018;12;4;4;53;2;;;;;;;;;;;;1;;;;4.07;0;;;
HAR07;2018;12;4;4;57;57;;;;;;;;;;;;1;;;;4.06;0;;;
HAR07;2018;12;4;4;57;58;;;;;;;;;;;;1;;;;4.06;0;;;
HAR07;2018;12;4;4;58;0;-37.853650;77.524417;0.2;12;4.06;26;;;;;;;;3751219S;07731465E;;0;;;
HAR07;2018;12;4;4;58;5;;;;;;;;;;;;1;;;;4.06;0;;;
HAR07;2018;12;4;4;58;6;;;;;;;;;;;;1;;;;4.06;0;;;
HAR07;2018;12;4;4;58;7;;;;;;;;;;;;1;;;;4.06;0;;;
HAR07;2018;12;4;5;3;25;;;;;;;;;;;;1;;;;4.06;0;;;
HAR07;2018;12;4;5;3;26;;;;;;;;;;;;1;;;;4.06;0;;;
HAR07;2018;12;4;5;8;19;;;;;;;;;;;;1;;;;4.06;0;;;
HAR07;2018;12;4;5;8;20;;;;;;;;;;;;1;;;;4.06;0;;;
HAR07;2018;12;4;5;13;0;-37.853367;77.524633;0.5;13;4.06;26;;;;;;;;3751202S;07731478E;;0;;;
HAR07;2018;12;4;5;13;15;;;;;;;;;;;;1;;;;4.06;0;;;
HAR07;2018;12;4;5;13;16;;;;;;;;;;;;1;;;;4.06;0;;;
HAR07;2018;12;4;5;13;23;;;;;;;;;;;;1;;;;4.06;0;;;
HAR07;2018;12;4;5;13;24;;;;;;;;;;;;1;;;;4.06;0;;;
HAR07;2018;12;4;5;13;25;;;;;;;;;;;;1;;;;4.06;0;;;
HAR07;2018;12;4;5;18;43;;;;;;;;;;;;1;;;;4.07;0;;;
HAR07;2018;12;4;5;18;44;;;;;;;;;;;;1;;;;4.07;0;;;
HAR07;2018;12;4;5;23;38;;;;;;;;;;;;1;;;;4.07;0;;;
HAR07;2018;12;4;5;23;39;;;;;;;;;;;;1;;;;4.07;0;;;
HAR07;2018;12;4;5;28;34;;;;;;;;;;;;1;;;;4.07;0;;;
HAR07;2018;12;4;5;28;35;;;;;;;;;;;;1;;;;4.07;0;;;
HAR07;2018;12;4;5;28;42;;;;;;;;;;;;1;;;;4.07;0;;;
HAR07;2018;12;4;5;28;43;;;;;;;;;;;;1;;;;4.07;0;;;
HAR07;2018;12;4;5;28;44;;;;;;;;;;;;1;;;;4.07;0;;;
HAR07;2018;12;4;5;29;0;-37.855283;77.524667;1.8;20;4.07;23;;;;;;;;3751317S;07731480E;;0;;;
HAR07;2018;12;4;5;44;0;-37.870700;77.536317;24.;8;4.08;19;;;;;;;;3752242S;07732179E;;0;;;
HAR07;2018;12;4;5;54;19;;;;;;;;;;;;1;;;;4.08;0;;;
HAR07;2018;12;4;5;54;20;;;;;;;;;;;;1;;;;4.08;0;;;
HAR07;2018;12;4;5;59;14;;;;;;;;;;;;1;;;;4.08;0;;;
HAR07;2018;12;4;5;59;15;;;;;;;;;;;;1;;;;4.08;0;;;
HAR07;2018;12;4;5;59;22;;;;;;;;;;;;1;;;;4.08;0;;;
HAR07;2018;12;4;5;59;23;;;;;;;;;;;;1;;;;4.08;0;;;
HAR07;2018;12;4;5;59;24;;;;;;;;;;;;1;;;;4.08;0;;;
HAR07;2018;12;4;6;2;25;;;;;;;;;;1;;;;;;;0;;;
HAR07;2018;12;4;6;7;23;;;;;;;;;;;;1;;;;4.06;0;;;
HAR07;2018;12;4;6;7;24;;;;;;;;;;;;1;;;;4.06;0;;;
HAR07;2018;12;4;6;12;18;;;;;;;;;;;;1;;;;4.06;0;;;
HAR07;2018;12;4;6;12;19;;;;;;;;;;;;1;;;;4.06;0;;;
HAR07;2018;12;4;6;17;14;;;;;;;;;;;;1;;;;4.07;0;;;
HAR07;2018;12;4;6;17;15;;;;;;;;;;;;1;;;;4.07;0;;;
HAR07;2018;12;4;6;17;22;;;;;;;;;;;;1;;;;4.07;0;;;
HAR07;2018;12;4;6;17;23;;;;;;;;;;;;1;;;;4.07;0;;;
HAR07;2018;12;4;6;17;24;;;;;;;;;;;;1;;;;4.07;0;;;
HAR07;2018;12;4;6;19;0;-37.854433;77.523933;0.4;114;4.07;23.5;;;;;;;;3751266S;07731436E;;0;;;
HAR07;2018;12;4;6;24;30;;;;;;;;;;;;1;;;;4.06;0;;;
HAR07;2018;12;4;6;24;31;;;;;;;;;;;;1;;;;4.05;0;;;
HAR07;2018;12;4;6;29;24;;;;;;;;;;;;1;;;;4.06;0;;;
HAR07;2018;12;4;6;29;25;;;;;;;;;;;;1;;;;4.06;0;;;
HAR07;2018;12;4;6;34;0;-37.853367;77.525200;0.9;9;4.06;19;;;;;;;;3751202S;07731512E;;0;;;
HAR07;2018;12;4;6;34;20;;;;;;;;;;;;1;;;;4.07;0;;;
HAR07;2018;12;4;6;34;21;;;;;;;;;;;;1;;;;4.06;0;;;
HAR07;2018;12;4;6;34;28;;;;;;;;;;;;1;;;;4.06;0;;;
HAR07;2018;12;4;6;34;29;;;;;;;;;;;;1;;;;4.06;0;;;
HAR07;2018;12;4;6;34;30;;;;;;;;;;;;1;;;;4.06;0;;;
HAR07;2018;12;4;6;39;45;;;;;;;;;;;;1;;;;4.06;0;;;
HAR07;2018;12;4;6;39;46;;;;;;;;;;;;1;;;;4.06;0;;;
HAR07;2018;12;4;6;50;0;-37.871267;77.536483;4.6;35;4.07;19;;;;;;;;3752276S;07732189E;;0;;;
HAR07;2018;12;4;7;5;0;-37.891000;77.650083;9.4;19;4.08;19;;;;;;;;3753460S;07739005E;;0;;;
HAR07;2018;12;4;7;21;0;-37.904500;77.741100;35.;11;4.09;20.5;;;;;;;;3754270S;07744466E;;0;;;
HAR07;2018;12;4;7;36;0;-37.904917;77.842383;0.6;37;4.12;22.5;;;;;;;;3754295S;07750543E;;0;;;
HAR07;2018;12;4;7;52;0;-37.905350;77.915017;12.;19;4.13;23;;;;;;;;3754321S;07754901E;;0;;;
HAR07;2018;12;4;8;9;0;-37.899133;78.017767;7.0;117;4.13;24;;;;;;;;3753948S;07801066E;;0;;;
HAR07;2018;12;4;8;27;0;-37.903433;78.130200;15.;114;4.13;23;;;;;;;;3754206S;07807812E;;0;;;
HAR07;2018;12;4;8;43;0;-37.910700;78.229717;14.;94;4.14;23;;;;;;;;3754642S;07813783E;;0;;;
HAR07;2018;12;4;9;0;0;-37.923717;78.312983;31.;47;4.13;24.5;;;;;;;;3755423S;07818779E;;0;;;
HAR07;2018;12;4;9;16;0;-37.938767;78.389017;37.;3;4.13;24.5;;;;;;;;3756326S;07823341E;;0;;;
HAR07;2018;12;4;9;31;0;-37.957717;78.470617;6.0;12;4.13;22.5;;;;;;;;3757463S;07828237E;;0;;;
HAR07;2018;12;4;9;47;0;-37.970133;78.523167;15.;19;4.15;19;;;;;;;;3758208S;07831390E;;0;;;
HAR07;2018;12;4;10;2;0;-37.971267;78.579317;9.9;6;4.12;23;;;;;;;;3758276S;07834759E;;0;;;
HAR07;2018;12;4;10;18;0;-37.965150;78.588383;20.;21;4.14;19.5;;;;;;;;3757909S;07835303E;;0;;;
HAR07;2018;12;4;10;33;0;-37.964433;78.587533;22.;17;4.15;18.5;;;;;;;;3757866S;07835252E;;0;;;
HAR07;2018;12;4;10;49;0;-37.958467;78.590767;23.;18;4.15;17;;;;;;;;3757508S;07835446E;;0;;;
HAR07;2018;12;4;11;4;0;-37.956500;78.600433;10.;2;4.14;19;;;;;;;;3757390S;07836026E;;0;;;
HAR07;2018;12;4;11;20;0;-37.970833;78.688250;20.;44;4.12;20;;;;;;;;3758250S;07841295E;;0;;;
HAR07;2018;12;4;11;36;0;-37.982883;78.796783;21.;25;4.13;16.5;;;;;;;;3758973S;07847807E;;0;;;
HAR07;2018;12;4;11;51;0;-37.994617;78.873717;27.;13;4.14;17.5;;;;;;;;3759677S;07852423E;;0;;;
HAR07;2018;12;4;12;7;0;-38.009333;78.974550;21.;74;4.14;19;;;;;;;;3800560S;07858473E;;0;;;
HAR07;2018;12;4;12;24;0;-38.009700;79.080600;30.;56;4.14;19.5;;;;;;;;3800582S;07904836E;;0;;;
HAR07;2018;12;4;12;39;0;-38.015417;79.171133;13.;2;4.12;20.5;;;;;;;;3800925S;07910268E;;0;;;
HAR07;2018;12;4;12;54;0;-38.029867;79.187467;23.;9;4.14;17;;;;;;;;3801792S;07911248E;;0;;;
HAR07;2018;12;4;13;10;0;-38.014800;79.179067;23.;14;4.14;16;;;;;;;;3800888S;07910744E;;0;;;
HAR07;2018;12;4;13;25;0;-38.031467;79.241700;28.;16;4.14;16;;;;;;;;3801888S;07914502E;;0;;;
HAR07;2018;12;4;13;40;0;-38.053683;79.315600;19.;24;4.14;15.5;;;;;;;;3803221S;07918936E;;0;;;
HAR07;2018;12;4;13;56;0;-38.068533;79.383317;26.;25;4.14;16;;;;;;;;3804112S;07922999E;;0;;;
HAR07;2018;12;4;14;12;0;-38.078633;79.466600;34.;56;4.13;15.5;;;;;;;;3804718S;07927996E;;0;;;
HAR07;2018;12;4;14;27;0;-38.087067;79.540850;1.5;15;4.13;15.5;;;;;;;;3805224S;07932451E;;0;;;
HAR07;2018;12;4;14;43;0;-38.086067;79.540617;0.4;34;4.12;16;;;;;;;;3805164S;07932437E;;0;;;
HAR07;2018;12;4;14;58;0;-38.083900;79.542450;0.9;4;4.12;15.5;;;;;;;;3805034S;07932547E;;0;;;
HAR07;2018;12;4;15;13;0;-38.081783;79.542750;0.3;6;4.12;16.5;;;;;;;;3804907S;07932565E;;0;;;
HAR07;2018;12;4;15;29;0;-38.079817;79.544083;1.8;7;4.12;18;;;;;;;;3804789S;07932645E;;0;;;
HAR07;2018;12;4;15;44;0;-38.078050;79.544917;3.3;4;4.12;18;;;;;;;;3804683S;07932695E;;0;;;
HAR07;2018;12;4;15;59;0;-38.076400;79.545000;0.8;8;4.12;18;;;;;;;;3804584S;07932700E;;0;;;
HAR07;2018;12;4;16;14;0;-38.074433;79.544667;1.1;5;4.12;17;;;;;;;;3804466S;07932680E;;0;;;
HAR07;2018;12;4;16;29;0;-38.071867;79.544267;0.1;7;4.12;19;;;;;;;;3804312S;07932656E;;0;;;
HAR07;2018;12;4;16;45;0;-38.069433;79.543450;1.1;6;4.12;19.5;;;;;;;;3804166S;07932607E;;0;;;
HAR07;2018;12;4;17;0;0;-38.067317;79.542517;0.1;8;4.12;19.5;;;;;;;;3804039S;07932551E;;0;;;
HAR07;2018;12;4;17;15;0;-38.065333;79.541983;0.4;7;4.12;19.5;;;;;;;;3803920S;07932519E;;0;;;
HAR07;2018;12;4;17;30;0;-38.063433;79.541050;0.5;9;4.12;19.5;;;;;;;;3803806S;07932463E;;0;;;
HAR07;2018;12;4;17;46;0;-38.061883;79.539467;1.8;11;4.12;18.5;;;;;;;;3803713S;07932368E;;0;;;
HAR07;2018;12;4;18;1;0;-38.060400;79.537950;2.0;15;4.12;19;;;;;;;;3803624S;07932277E;;0;;;
HAR07;2018;12;4;18;17;0;-38.058600;79.537133;0.2;32;4.12;18.5;;;;;;;;3803516S;07932228E;;0;;;
HAR07;2018;12;4;18;32;0;-38.056583;79.536233;0.8;6;4.11;19;;;;;;;;3803395S;07932174E;;0;;;
HAR07;2018;12;4;18;47;0;-38.054500;79.535617;1.3;8;4.11;19;;;;;;;;3803270S;07932137E;;0;;;
HAR07;2018;12;4;19;2;0;-38.053117;79.534567;2.3;6;4.11;18.5;;;;;;;;3803187S;07932074E;;0;;;
HAR07;2018;12;4;19;17;0;-38.051200;79.532767;0.8;6;4.11;18.5;;;;;;;;3803072S;07931966E;;0;;;
HAR07;2018;12;4;19;33;0;-38.049467;79.530133;1.5;8;4.11;19;;;;;;;;3802968S;07931808E;;0;;;
HAR07;2018;12;4;19;48;0;-38.047750;79.527233;2.1;9;4.11;18.5;;;;;;;;3802865S;07931634E;;0;;;
HAR07;2018;12;4;20;3;0;-38.046250;79.524917;0.1;9;4.11;18;;;;;;;;3802775S;07931495E;;0;;;
HAR07;2018;12;4;20;18;0;-38.044900;79.523550;2.3;11;4.11;17;;;;;;;;3802694S;07931413E;;0;;;
HAR07;2018;12;4;20;34;0;-38.043650;79.522167;1.4;14;4.11;16.5;;;;;;;;3802619S;07931330E;;0;;;
HAR07;2018;12;4;20;50;0;-38.042150;79.520800;0.5;45;4.1;16.5;;;;;;;;3802529S;07931248E;;0;;;
HAR07;2018;12;4;21;5;0;-38.040750;79.519817;0.7;7;4.1;18;;;;;;;;3802445S;07931189E;;0;;;
HAR07;2018;12;4;21;20;0;-38.039367;79.518717;1.7;6;4.1;19.5;;;;;;;;3802362S;07931123E;;0;;;
HAR07;2018;12;4;21;35;0;-38.037783;79.516833;0.5;7;4.1;19;;;;;;;;3802267S;07931010E;;0;;;
HAR07;2018;12;4;21;51;0;-38.036333;79.515550;0.6;17;4.1;19;;;;;;;;3802180S;07930933E;;0;;;
HAR07;2018;12;4;22;6;0;-38.035450;79.514150;1.1;14;4.1;18;;;;;;;;3802127S;07930849E;;0;;;
HAR07;2018;12;4;22;22;0;-38.044950;79.527050;7.8;49;4.1;15;;;;;;;;3802697S;07931623E;;0;;;
HAR07;2018;12;4;22;38;0;-38.057483;79.505533;10.;42;4.09;16;;;;;;;;3803449S;07930332E;;0;;;
HAR07;2018;12;4;22;55;0;-38.084650;79.489117;12.;166;4.09;15;;;;;;;;3805079S;07929347E;;0;;;
HAR07;2018;12;4;23;11;0;-38.120133;79.482583;16.;20;4.08;15;;;;;;;;3807208S;07928955E;;0;;;
HAR07;2018;12;4;23;26;0;-38.165833;79.491217;12.;12;4.08;15.5;;;;;;;;3809950S;07929473E;;0;;;
HAR07;2018;12;4;23;42;0;-38.193083;79.548650;18.;17;4.08;16;;;;;;;;3811585S;07932919E;;0;;;
HAR07;2018;12;4;23;57;0;-38.183883;79.576617;6.5;25;4.08;16.5;;;;;;;;3811033S;07934597E;;0;;;
HAR07;2018;12;5;0;14;0;-38.182833;79.579833;12.;89;4.08;17;;;;;;;;3810970S;07934790E;;0;;;
HAR07;2018;12;5;0;29;0;-38.180483;79.579517;14.;45;4.08;15;;;;;;;;3810829S;07934771E;;0;;;
HAR07;2018;12;5;0;45;0;-38.190733;79.631317;21.;33;4.08;15.5;;;;;;;;3811444S;07937879E;;0;;;
HAR07;2018;12;5;1;0;0;-38.197617;79.657067;1.1;6;4.08;16;;;;;;;;3811857S;07939424E;;0;;;
HAR07;2018;12;5;1;16;0;-38.204183;79.660600;0.6;8;4.08;16;;;;;;;;3812251S;07939636E;;0;;;
HAR07;2018;12;5;1;31;0;-38.203617;79.660433;0.6;14;4.08;21.5;;;;;;;;3812217S;07939626E;;0;;;
HAR07;2018;12;5;1;46;0;-38.203350;79.660067;3.2;19;4.08;23;;;;;;;;3812201S;07939604E;;0;;;
HAR07;2018;12;5;2;2;0;-38.221867;79.677700;0.0;39;4.08;20;;;;;;;;3813312S;07940662E;;0;;;
HAR07;2018;12;5;2;17;0;-38.219550;79.676750;1.4;5;4.09;22;;;;;;;;3813173S;07940605E;;0;;;
HAR07;2018;12;5;2;32;0;-38.231350;79.681583;21.;6;4.09;19;;;;;;;;3813881S;07940895E;;0;;;
HAR07;2018;12;5;2;48;0;-38.264467;79.656683;23.;8;4.12;19;;;;;;;;3815868S;07939401E;;0;;;
HAR07;2018;12;5;3;3;0;-38.289917;79.633900;34.;8;4.13;20;;;;;;;;3817395S;07938034E;;0;;;
HAR07;2018;12;5;3;18;0;-38.324483;79.635950;33.;10;4.15;19;;;;;;;;3819469S;07938157E;;0;;;
HAR07;2018;12;5;3;34;0;-38.338183;79.620400;13.;5;4.12;21.5;;;;;;;;3820291S;07937224E;;0;;;
HAR07;2018;12;5;3;49;0;-38.344633;79.609283;7.9;5;4.14;23;;;;;;;;3820678S;07936557E;;0;;;
HAR07;2018;12;5;4;5;0;-38.353867;79.569233;8.7;7;4.14;23.5;;;;;;;;3821232S;07934154E;;0;;;
HAR07;2018;12;5;4;21;0;-38.381600;79.542050;9.9;3;4.12;20.5;;;;;;;;3822896S;07932523E;;0;;;
HAR07;2018;12;5;4;37;0;-38.423483;79.582050;16.;73;4.14;19.5;;;;;;;;3825409S;07934923E;;0;;;
HAR07;2018;12;5;4;54;0;-38.453467;79.657900;29.;107;4.14;23;;;;;;;;3827208S;07939474E;;0;;;
HAR07;2018;12;5;5;10;0;-38.490567;79.727000;32.;14;4.13;23.5;;;;;;;;3829434S;07943620E;;0;;;
HAR07;2018;12;5;5;26;0;-38.496300;79.756767;3.3;3;4.14;24;;;;;;;;3829778S;07945406E;;0;;;
HAR07;2018;12;5;5;42;0;-38.503083;79.787850;0.7;2;4.14;25;;;;;;;;3830185S;07947271E;;0;;;
HAR07;2018;12;5;5;58;0;-38.506100;79.813850;14.;7;4.13;24.5;;;;;;;;3830366S;07948831E;;0;;;
HAR07;2018;12;5;6;13;0;-38.507683;79.816400;2.0;19;4.15;29.5;;;;;;;;3830461S;07948984E;;0;;;
HAR07;2018;12;5;6;29;0;-38.506650;79.815483;0.4;33;4.12;19.5;;;;;;;;3830399S;07948929E;;0;;;
HAR07;2018;12;5;6;44;0;-38.505233;79.814533;1.2;19;4.13;20;;;;;;;;3830314S;07948872E;;0;;;
HAR07;2018;12;5;7;0;0;-38.531300;79.821717;14.;13;4.14;17;;;;;;;;3831878S;07949303E;;0;;;
HAR07;2018;12;5;7;15;0;-38.562167;79.864483;30.;13;4.14;18;;;;;;;;3833730S;07951869E;;0;;;
HAR07;2018;12;5;7;30;0;-38.582583;79.925717;24.;12;4.15;19;;;;;;;;3834955S;07955543E;;0;;;
HAR07;2018;12;5;7;46;0;-38.608567;79.985217;9.4;5;4.12;24;;;;;;;;3836514S;07959113E;;0;;;
HAR07;2018;12;5;8;2;0;-38.627083;79.980383;17.;58;4.13;18.5;;;;;;;;3837625S;07958823E;;0;;;
HAR07;2018;12;5;8;18;0;-38.655767;80.021100;27.;21;4.13;17.5;;;;;;;;3839346S;08001266E;;0;;;
HAR07;2018;12;5;8;33;0;-38.689933;80.066100;33.;14;4.14;18.5;;;;;;;;3841396S;08003966E;;0;;;
HAR07;2018;12;5;8;48;0;-38.717850;80.089800;28.;14;4.15;19.5;;;;;;;;3843071S;08005388E;;0;;;
HAR07;2018;12;5;9;4;0;-38.717200;80.140983;30.;13;4.15;21;;;;;;;;3843032S;08008459E;;0;;;
HAR07;2018;12;5;9;21;0;-38.708250;80.223850;0.4;123;4.11;24.5;;;;;;;;3842495S;08013431E;;0;;;
HAR07;2018;12;5;9;37;0;-38.696950;80.298267;24.;9;4.12;21.5;;;;;;;;3841817S;08017896E;;0;;;
HAR07;2018;12;5;9;52;0;-38.686617;80.328950;24.;12;4.13;22.5;;;;;;;;3841197S;08019737E;;0;;;
HAR07;2018;12;5;10;7;0;-38.679817;80.383267;33.;9;4.14;19.5;;;;;;;;3840789S;08022996E;;0;;;
HAR07;2018;12;5;10;23;0;-38.691133;80.453800;23.;16;4.15;20.5;;;;;;;;3841468S;08027228E;;0;;;
HAR07;2018;12;5;10;38;0;-38.713000;80.527500;21.;7;4.13;23;;;;;;;;3842780S;08031650E;;0;;;
HAR07;2018;12;5;10;53;0;-38.708800;80.578700;9.5;11;4.15;20;;;;;;;;3842528S;08034722E;;0;;;
HAR07;2018;12;5;11;9;0;-38.708050;80.662500;22.;12;4.13;21.5;;;;;;;;3842483S;08039750E;;0;;;
HAR07;2018;12;5;11;24;0;-38.715800;80.734333;32.;18;4.15;19.5;;;;;;;;3842948S;08044060E;;0;;;
HAR07;2018;12;5;11;40;0;-38.698233;80.805917;18.;3;4.12;21;;;;;;;;3841894S;08048355E;;0;;;
HAR07;2018;12;5;11;55;0;-38.683250;80.868650;8.0;21;4.13;17.5;;;;;;;;3840995S;08052119E;;0;;;
HAR07;2018;12;5;12;10;0;-38.681783;80.890767;13.;9;4.13;17;;;;;;;;3840907S;08053446E;;0;;;
HAR07;2018;12;5;12;26;0;-38.661050;80.926050;23.;13;4.14;16.5;;;;;;;;3839663S;08055563E;;0;;;
HAR07;2018;12;5;12;41;0;-38.653417;80.932950;13.;20;4.14;16.5;;;;;;;;3839205S;08055977E;;0;;;
HAR07;2018;12;5;12;56;0;-38.652933;80.955517;21.;12;4.13;15.5;;;;;;;;3839176S;08057331E;;0;;;
HAR07;2018;12;5;13;12;0;-38.633433;80.969950;11.;16;4.13;15.5;;;;;;;;3838006S;08058197E;;0;;;
HAR07;2018;12;5;13;27;0;-38.599883;81.038317;32.;16;4.13;15.5;;;;;;;;3835993S;08102299E;;0;;;
HAR07;2018;12;5;13;42;0;-38.585267;81.085000;15.;11;4.13;16;;;;;;;;3835116S;08105100E;;0;;;
HAR07;2018;12;5;13;58;0;-38.585467;81.118083;0.4;11;4.13;16;;;;;;;;3835128S;08107085E;;0;;;
HAR07;2018;12;5;14;13;0;-38.581917;81.124683;14.;13;4.13;16;;;;;;;;3834915S;08107481E;;0;;;
HAR07;2018;12;5;14;28;0;-38.560183;81.127767;16.;15;4.13;16;;;;;;;;3833611S;08107666E;;0;;;
HAR07;2018;12;5;14;44;0;-38.542250;81.176117;12.;12;4.12;16;;;;;;;;3832535S;08110567E;;0;;;
HAR07;2018;12;5;14;59;0;-38.541333;81.174300;1.1;9;4.12;17;;;;;;;;3832480S;08110458E;;0;;;
HAR07;2018;12;5;15;14;0;-38.540683;81.172683;0.2;14;4.12;18;;;;;;;;3832441S;08110361E;;0;;;
HAR07;2018;12;5;15;29;0;-38.540283;81.170883;0.8;11;4.12;18;;;;;;;;3832417S;08110253E;;0;;;
HAR07;2018;12;5;15;45;0;-38.539317;81.169350;0.5;10;4.12;18;;;;;;;;3832359S;08110161E;;0;;;
HAR07;2018;12;5;16;0;0;-38.539033;81.166317;0.7;14;4.12;18.5;;;;;;;;3832342S;08109979E;;0;;;
HAR07;2018;12;5;16;15;0;-38.537850;81.167083;0.4;12;4.12;18.5;;;;;;;;3832271S;08110025E;;0;;;
HAR07;2018;12;5;16;31;0;-38.537417;81.166167;1.1;10;4.12;18.5;;;;;;;;3832245S;08109970E;;0;;;
HAR07;2018;12;5;16;46;0;-38.536733;81.165750;0.2;10;4.12;20.5;;;;;;;;3832204S;08109945E;;0;;;
HAR07;2018;12;5;17;1;0;-38.535600;81.166067;0.6;9;4.12;21;;;;;;;;3832136S;08109964E;;0;;;
HAR07;2018;12;5;17;16;0;-38.535433;81.166283;0.8;9;4.12;21.5;;;;;;;;3832126S;08109977E;;0;;;
HAR07;2018;12;5;17;32;0;-38.535333;81.166367;0.8;8;4.12;20.5;;;;;;;;3832120S;08109982E;;0;;;
HAR07;2018;12;5;17;47;0;-38.535100;81.166333;0.4;9;4.12;20.5;;;;;;;;3832106S;08109980E;;0;;;
HAR07;2018;12;5;18;2;0;-38.534200;81.166883;0.9;20;4.12;20;;;;;;;;3832052S;08110013E;;0;;;
HAR07;2018;12;5;18;18;0;-38.533350;81.167483;0.2;14;4.12;19;;;;;;;;3832001S;08110049E;;0;;;
HAR07;2018;12;5;18;33;0;-38.532433;81.168583;0.5;15;4.11;18.5;;;;;;;;3831946S;08110115E;;0;;;
HAR07;2018;12;5;18;48;0;-38.529967;81.169717;0.5;18;4.11;20.5;;;;;;;;3831798S;08110183E;;0;;;
HAR07;2018;12;5;19;4;0;-38.529733;81.169850;0.5;15;4.11;19;;;;;;;;3831784S;08110191E;;0;;;
HAR07;2018;12;5;19;19;0;-38.528250;81.170600;0.3;15;4.11;19.5;;;;;;;;3831695S;08110236E;;0;;;
HAR07;2018;12;5;19;34;0;-38.526967;81.171167;1.0;12;4.11;20;;;;;;;;3831618S;08110270E;;0;;;
HAR07;2018;12;5;19;50;0;-38.525067;81.171200;1.5;14;4.11;17;;;;;;;;3831504S;08110272E;;0;;;
HAR07;2018;12;5;20;5;0;-38.521917;81.171517;1.6;13;4.1;19.5;;;;;;;;3831315S;08110291E;;0;;;
HAR07;2018;12;5;20;20;0;-38.518733;81.171950;0.3;9;4.1;20;;;;;;;;3831124S;08110317E;;0;;;
HAR07;2018;12;5;20;35;0;-38.515233;81.172350;1.1;11;4.1;20;;;;;;;;3830914S;08110341E;;0;;;
HAR07;2018;12;5;20;51;0;-38.511883;81.172467;0.9;9;4.1;19.5;;;;;;;;3830713S;08110348E;;0;;;
HAR07;2018;12;5;21;6;0;-38.508033;81.172583;1.3;11;4.1;19.5;;;;;;;;3830482S;08110355E;;0;;;
HAR07;2018;12;5;21;21;0;-38.504483;81.173117;2.2;8;4.1;19.5;;;;;;;;3830269S;08110387E;;0;;;
HAR07;2018;12;5;21;36;0;-38.500683;81.173917;1.7;12;4.1;18.5;;;;;;;;3830041S;08110435E;;0;;;
HAR07;2018;12;5;21;52;0;-38.497617;81.174583;0.7;13;4.1;18.5;;;;;;;;3829857S;08110475E;;0;;;
HAR07;2018;12;5;22;7;0;-38.495450;81.174817;0.6;14;4.1;17;;;;;;;;3829727S;08110489E;;0;;;
HAR07;2018;12;5;22;22;0;-38.486983;81.180233;28.;8;4.1;16;;;;;;;;3829219S;08110814E;;0;;;
HAR07;2018;12;5;22;38;0;-38.453883;81.202183;31.;11;4.1;15.5;;;;;;;;3827233S;08112131E;;0;;;
HAR07;2018;12;5;22;53;0;-38.416867;81.239967;27.;15;4.09;15.5;;;;;;;;3825012S;08114398E;;0;;;
HAR07;2018;12;5;23;8;0;-38.413233;81.252633;12.;8;4.09;15;;;;;;;;3824794S;08115158E;;0;;;
HAR07;2018;12;5;23;23;0;-38.419517;81.254167;13.;9;4.09;16;;;;;;;;3825171S;08115250E;;0;;;
HAR07;2018;12;5;23;39;0;-38.424450;81.287167;18.;8;4.09;15.5;;;;;;;;3825467S;08117230E;;0;;;
HAR07;2018;12;5;23;54;0;-38.383000;81.317083;0.2;9;4.09;16;;;;;;;;3822980S;08119025E;;0;;;
HAR07;2018;12;6;0;9;0;-38.350233;81.321050;18.;9;4.09;15.5;;;;;;;;3821014S;08119263E;;0;;;
HAR07;2018;12;6;0;24;0;-38.325533;81.330150;20.;8;4.09;15.5;;;;;;;;3819532S;08119809E;;0;;;
HAR07;2018;12;6;0;40;0;-38.282883;81.349367;17.;10;4.09;15.5;;;;;;;;3816973S;08120962E;;0;;;
HAR07;2018;12;6;0;55;0;-38.292117;81.441467;24.;9;4.09;16.5;;;;;;;;3817527S;08126488E;;0;;;
HAR07;2018;12;6;1;10;0;-38.315133;81.492300;12.;13;4.09;16;;;;;;;;3818908S;08129538E;;0;;;
HAR07;2018;12;6;1;25;0;-38.327267;81.514033;24.;11;4.09;16.5;;;;;;;;3819636S;08130842E;;0;;;
HAR07;2018;12;6;1;41;0;-38.356300;81.538350;13.;9;4.08;17;;;;;;;;3821378S;08132301E;;0;;;
HAR07;2018;12;6;1;56;0;-38.363800;81.536833;15.;11;4.09;18;;;;;;;;3821828S;08132210E;;0;;;
HAR07;2018;12;6;2;11;0;-38.364583;81.537017;1.5;8;4.08;21.5;;;;;;;;3821875S;08132221E;;0;;;
HAR07;2018;12;6;2;26;0;-38.366550;81.537350;0.4;8;4.08;21;;;;;;;;3821993S;08132241E;;0;;;
HAR07;2018;12;6;2;42;0;-38.364600;81.538067;9.1;9;4.08;20.5;;;;;;;;3821876S;08132284E;;0;;;
HAR07;2018;12;6;2;57;0;-38.364417;81.544800;1.0;11;4.08;20.5;;;;;;;;3821865S;08132688E;;0;;;
HAR07;2018;12;6;3;12;0;-38.365250;81.547767;1.7;12;4.09;22;;;;;;;;3821915S;08132866E;;0;;;
HAR07;2018;12;6;3;27;0;-38.366100;81.552767;0.5;11;4.09;24.5;;;;;;;;3821966S;08133166E;;0;;;
HAR07;2018;12;6;3;43;0;-38.366850;81.552600;0.9;11;4.09;24.5;;;;;;;;3822011S;08133156E;;0;;;
HAR07;2018;12;6;3;58;0;-38.368183;81.555167;1.5;9;4.09;25.5;;;;;;;;3822091S;08133310E;;0;;;
HAR07;2018;12;6;4;13;0;-38.368367;81.558900;0.6;14;4.09;26;;;;;;;;3822102S;08133534E;;0;;;
HAR07;2018;12;6;4;29;0;-38.370033;81.557650;0.6;12;4.09;24;;;;;;;;3822202S;08133459E;;0;;;
HAR07;2018;12;6;4;44;0;-38.370050;81.561317;16.;10;4.09;24.5;;;;;;;;3822203S;08133679E;;0;;;
HAR07;2018;12;6;4;59;0;-38.370583;81.565300;1.1;10;4.09;25.5;;;;;;;;3822235S;08133918E;;0;;;
HAR07;2018;12;6;5;14;0;-38.370733;81.565767;2.8;8;4.09;24.5;;;;;;;;3822244S;08133946E;;0;;;
HAR07;2018;12;6;5;29;0;-38.370633;81.569950;1.4;10;4.09;26;;;;;;;;3822238S;08134197E;;0;;;
HAR07;2018;12;6;5;45;0;-38.371100;81.574867;1.3;24;4.09;25.5;;;;;;;;3822266S;08134492E;;0;;;
HAR07;2018;12;6;6;0;0;-38.370733;81.579367;1.2;17;4.09;24.5;;;;;;;;3822244S;08134762E;;0;;;
HAR07;2018;12;6;6;16;0;-38.371050;81.583733;0.6;34;4.09;25.5;;;;;;;;3822263S;08135024E;;0;;;
HAR07;2018;12;6;6;31;0;-38.371100;81.589500;1.3;8;4.08;27;;;;;;;;3822266S;08135370E;;0;;;
HAR07;2018;12;6;6;46;0;-38.370517;81.593850;0.6;8;4.08;27;;;;;;;;3822231S;08135631E;;0;;;
HAR07;2018;12;6;7;2;0;-38.369933;81.597717;1.6;7;4.08;28;;;;;;;;3822196S;08135863E;;0;;;
HAR07;2018;12;6;7;17;0;-38.368000;81.602233;1.6;8;4.08;25.5;;;;;;;;3822080S;08136134E;;0;;;
HAR07;2018;12;6;7;32;0;-38.368067;81.609433;1.2;7;4.09;24.5;;;;;;;;3822084S;08136566E;;0;;;
HAR07;2018;12;6;7;47;0;-38.369433;81.613250;1.0;11;4.09;24;;;;;;;;3822166S;08136795E;;0;;;
HAR07;2018;12;6;8;3;0;-38.369067;81.618700;1.6;8;4.09;25;;;;;;;;3822144S;08137122E;;0;;;
HAR07;2018;12;6;8;18;0;-38.363817;81.587767;0.9;8;4.09;21;;;;;;;;3821829S;08135266E;;0;;;
HAR07;2018;12;6;8;33;0;-38.364883;81.602267;16.;10;4.09;22.5;;;;;;;;3821893S;08136136E;;0;;;
HAR07;2018;12;6;8;48;0;-38.367133;81.626667;1.1;9;4.1;20.5;;;;;;;;3822028S;08137600E;;0;;;
HAR07;2018;12;6;9;4;0;-38.374517;81.662733;0.5;10;4.1;20.5;;;;;;;;3822471S;08139764E;;0;;;
HAR07;2018;12;6;9;19;0;-38.388283;81.710650;1.0;19;4.11;20;;;;;;;;3823297S;08142639E;;0;;;
HAR07;2018;12;6;9;34;0;-38.389783;81.718283;1.4;13;4.11;20.5;;;;;;;;3823387S;08143097E;;0;;;
HAR07;2018;12;6;9;50;0;-38.388317;81.726433;1.5;14;4.11;22;;;;;;;;3823299S;08143586E;;0;;;
HAR07;2018;12;6;10;5;0;-38.389050;81.734683;1.1;23;4.11;21;;;;;;;;3823343S;08144081E;;0;;;
HAR07;2018;12;6;10;21;0;-38.389617;81.741717;2.3;16;4.1;20.5;;;;;;;;3823377S;08144503E;;0;;;
HAR07;2018;12;6;10;36;0;-38.390683;81.748167;0.4;17;4.11;16;;;;;;;;3823441S;08144890E;;0;;;
HAR07;2018;12;6;10;51;0;-38.391200;81.755033;1.1;20;4.1;18;;;;;;;;3823472S;08145302E;;0;;;
HAR07;2018;12;6;11;7;0;-38.391817;81.762317;0.6;16;4.1;18.5;;;;;;;;3823509S;08145739E;;0;;;
HAR07;2018;12;6;11;22;0;-38.400467;81.770450;15.;33;4.11;18;;;;;;;;3824028S;08146227E;;0;;;
HAR07;2018;12;6;11;38;0;-38.402650;81.775633;1.0;30;4.1;18;;;;;;;;3824159S;08146538E;;0;;;
HAR07;2018;12;6;11;54;0;-38.403267;81.787433;2.3;30;4.1;17.5;;;;;;;;3824196S;08147246E;;0;;;
HAR07;2018;12;6;12;9;0;-38.406783;81.791833;0.8;25;4.09;17.5;;;;;;;;3824407S;08147510E;;0;;;
HAR07;2018;12;6;12;24;0;-38.406783;81.800633;0.4;8;4.09;17.5;;;;;;;;3824407S;08148038E;;0;;;
HAR07;2018;12;6;12;40;0;-38.394650;81.805033;18.;12;4.09;17;;;;;;;;3823679S;08148302E;;0;;;
HAR07;2018;12;6;12;55;0;-38.364150;81.846983;33.;9;4.09;17.5;;;;;;;;3821849S;08150819E;;0;;;
HAR07;2018;12;6;13;10;0;-38.374600;81.879933;35.;10;4.09;17.5;;;;;;;;3822476S;08152796E;;0;;;
HAR07;2018;12;6;13;25;0;-38.413167;81.898017;1.6;6;4.09;17;;;;;;;;3824790S;08153881E;;0;;;
HAR07;2018;12;6;13;40;0;-38.416367;81.906233;0.7;8;4.09;16.5;;;;;;;;3824982S;08154374E;;0;;;
HAR07;2018;12;6;13;56;0;-38.415250;81.921967;0.9;15;4.09;16;;;;;;;;3824915S;08155318E;;0;;;
HAR07;2018;12;6;14;11;0;-38.418317;81.927900;2.3;15;4.08;19;;;;;;;;3825099S;08155674E;;0;;;
HAR07;2018;12;6;14;26;0;-38.421467;81.934233;1.9;8;4.08;20.5;;;;;;;;3825288S;08156054E;;0;;;
HAR07;2018;12;6;14;42;0;-38.425067;81.940667;1.8;10;4.08;21.5;;;;;;;;3825504S;08156440E;;0;;;
HAR07;2018;12;6;14;57;0;-38.428133;81.946717;1.5;12;4.08;20.5;;;;;;;;3825688S;08156803E;;0;;;
HAR07;2018;12;6;15;12;0;-38.431200;81.952683;1.7;14;4.08;19.5;;;;;;;;3825872S;08157161E;;0;;;
HAR07;2018;12;6;15;28;0;-38.433567;81.958517;2.6;17;4.08;19.5;;;;;;;;3826014S;08157511E;;0;;;
HAR07;2018;12;6;15;43;0;-38.436317;81.963567;1.4;7;4.08;20;;;;;;;;3826179S;08157814E;;0;;;
HAR07;2018;12;6;15;58;0;-38.438583;81.969233;1.9;8;4.08;19;;;;;;;;3826315S;08158154E;;0;;;
HAR07;2018;12;6;16;13;0;-38.440833;81.975933;2.3;10;4.08;20.5;;;;;;;;3826450S;08158556E;;0;;;
HAR07;2018;12;6;16;29;0;-38.443350;81.982483;1.2;8;4.08;19.5;;;;;;;;3826601S;08158949E;;0;;;
HAR07;2018;12;6;16;44;0;-38.446017;81.988867;1.6;9;4.08;21.5;;;;;;;;3826761S;08159332E;;0;;;
HAR07;2018;12;6;16;59;0;-38.447633;81.994550;1.9;9;4.08;19;;;;;;;;3826858S;08159673E;;0;;;
HAR07;2018;12;6;17;14;0;-38.447833;82.000433;0.9;14;4.08;21.5;;;;;;;;3826870S;08200026E;;0;;;
HAR07;2018;12;6;17;30;0;-38.448367;82.007150;1.2;10;4.08;21;;;;;;;;3826902S;08200429E;;0;;;
HAR07;2018;12;6;17;45;0;-38.449317;82.013500;1.1;10;4.08;20.5;;;;;;;;3826959S;08200810E;;0;;;
HAR07;2018;12;6;18;0;0;-38.449617;82.019317;0.9;8;4.08;20.5;;;;;;;;3826977S;08201159E;;0;;;
HAR07;2018;12;6;18;16;0;-38.450533;82.024917;2.2;18;4.07;19.5;;;;;;;;3827032S;08201495E;;0;;;
HAR07;2018;12;6;18;31;0;-38.452850;82.030033;1.7;9;4.07;19;;;;;;;;3827171S;08201802E;;0;;;
HAR07;2018;12;6;18;46;0;-38.455517;82.036517;1.3;18;4.07;21.5;;;;;;;;3827331S;08202191E;;0;;;
HAR07;2018;12;6;19;2;0;-38.457850;82.043350;1.1;19;4.07;21.5;;;;;;;;3827471S;08202601E;;0;;;
HAR07;2018;12;6;19;17;0;-38.460450;82.048483;1.5;8;4.07;20;;;;;;;;3827627S;08202909E;;0;;;
HAR07;2018;12;6;19;32;0;-38.461200;82.054617;1.2;11;4.07;19.5;;;;;;;;3827672S;08203277E;;0;;;
HAR07;2018;12;6;19;47;0;-38.461417;82.061733;1.7;18;4.07;21.5;;;;;;;;3827685S;08203704E;;0;;;
HAR07;2018;12;6;20;3;0;-38.460350;82.070200;1.3;17;4.07;22;;;;;;;;3827621S;08204212E;;0;;;
HAR07;2018;12;6;20;18;0;-38.461683;82.076717;1.6;15;4.06;22;;;;;;;;3827701S;08204603E;;0;;;
HAR07;2018;12;6;20;33;0;-38.462600;82.084000;3.1;13;4.07;21;;;;;;;;3827756S;08205040E;;0;;;
HAR07;2018;12;6;20;49;0;-38.463600;82.091067;2.6;18;4.07;21.5;;;;;;;;3827816S;08205464E;;0;;;
HAR07;2018;12;6;21;4;0;-38.465350;82.098167;1.2;11;4.07;19.5;;;;;;;;3827921S;08205890E;;0;;;
HAR07;2018;12;6;21;19;0;-38.467233;82.104717;1.9;14;4.07;19;;;;;;;;3828034S;08206283E;;0;;;
HAR07;2018;12;6;21;35;0;-38.467750;82.111533;1.2;13;4.06;20;;;;;;;;3828065S;08206692E;;0;;;
HAR07;2018;12;6;21;50;0;-38.470167;82.118500;1.0;12;4.06;18;;;;;;;;3828210S;08207110E;;0;;;
HAR07;2018;12;6;22;6;0;-38.461333;82.124900;10.;43;4.07;16.5;;;;;;;;3827680S;08207494E;;0;;;
HAR07;2018;12;6;22;21;0;-38.467433;82.116633;20.;16;4.06;16.5;;;;;;;;3828046S;08206998E;;0;;;
HAR07;2018;12;6;22;37;0;-38.474350;82.101950;29.;14;4.06;16.5;;;;;;;;3828461S;08206117E;;0;;;
HAR07;2018;12;6;22;52;0;-38.490383;82.084017;20.;10;4.06;16.5;;;;;;;;3829423S;08205041E;;0;;;
HAR07;2018;12;6;23;7;0;-38.515300;82.059900;16.;22;4.06;17;;;;;;;;3830918S;08203594E;;0;;;
HAR07;2018;12;6;23;23;0;-38.534683;82.033300;17.;13;4.06;17;;;;;;;;3832081S;08201998E;;0;;;
HAR07;2018;12;6;23;38;0;-38.591583;82.042133;38.;14;4.06;17.5;;;;;;;;3835495S;08202528E;;0;;;
HAR07;2018;12;6;23;53;0;-38.619267;82.020100;17.;10;4.06;17.5;;;;;;;;3837156S;08201206E;;0;;;
HAR07;2018;12;7;0;8;0;-38.620783;82.008383;18.;15;4.06;17.5;;;;;;;;3837247S;08200503E;;0;;;
HAR07;2018;12;7;0;24;0;-38.632083;81.990917;12.;16;4.06;18;;;;;;;;3837925S;08159455E;;0;;;
HAR07;2018;12;7;0;39;0;-38.661300;81.986150;17.;10;4.06;17.5;;;;;;;;3839678S;08159169E;;0;;;
HAR07;2018;12;7;0;54;0;-38.662500;81.961100;22.;13;4.06;18;;;;;;;;3839750S;08157666E;;0;;;
HAR07;2018;12;7;1;10;0;-38.612700;81.938850;25.;10;4.06;18.5;;;;;;;;3836762S;08156331E;;0;;;
HAR07;2018;12;7;1;25;0;-38.569383;81.969983;19.;15;4.06;20.5;;;;;;;;3834163S;08158199E;;0;;;
HAR07;2018;12;7;1;40;0;-38.567533;82.001233;20.;17;4.07;21;;;;;;;;3834052S;08200074E;;0;;;
HAR07;2018;12;7;1;56;0;-38.565833;82.027800;1.2;17;4.07;20;;;;;;;;3833950S;08201668E;;0;;;
HAR07;2018;12;7;2;11;0;-38.564783;82.065117;30.;10;4.08;20;;;;;;;;3833887S;08203907E;;0;;;
HAR07;2018;12;7;2;26;0;-38.560300;82.096433;22.;16;4.08;19;;;;;;;;3833618S;08205786E;;0;;;
HAR07;2018;12;7;2;42;0;-38.557800;82.130333;10.;18;4.08;21;;;;;;;;3833468S;08207820E;;0;;;
HAR07;2018;12;7;2;57;0;-38.554850;82.164117;13.;12;4.08;21.5;;;;;;;;3833291S;08209847E;;0;;;
HAR07;2018;12;7;3;12;0;-38.551450;82.193267;29.;13;4.08;23.5;;;;;;;;3833087S;08211596E;;0;;;
HAR07;2018;12;7;3;28;0;-38.546717;82.225317;25.;12;4.08;21.5;;;;;;;;3832803S;08213519E;;0;;;
HAR07;2018;12;7;3;43;0;-38.540183;82.259150;18.;11;4.08;21;;;;;;;;3832411S;08215549E;;0;;;
HAR07;2018;12;7;3;58;0;-38.535783;82.281683;0.9;15;4.09;25;;;;;;;;3832147S;08216901E;;0;;;
HAR07;2018;12;7;4;14;0;-38.527200;82.327033;32.;24;4.09;22;;;;;;;;3831632S;08219622E;;0;;;
HAR07;2018;12;7;4;29;0;-38.523667;82.358250;28.;13;4.1;24.5;;;;;;;;3831420S;08221495E;;0;;;
HAR07;2018;12;7;4;45;0;-38.513367;82.393683;11.;24;4.11;22.5;;;;;;;;3830802S;08223621E;;0;;;
HAR07;2018;12;7;5;0;0;-38.507217;82.425967;19.;17;4.12;23;;;;;;;;3830433S;08225558E;;0;;;
HAR07;2018;12;7;5;15;0;-38.499700;82.455267;32.;26;4.13;24;;;;;;;;3829982S;08227316E;;0;;;
HAR07;2018;12;7;5;31;0;-38.494567;82.474417;1.1;19;4.13;26;;;;;;;;3829674S;08228465E;;0;;;
HAR07;2018;12;7;5;46;0;-38.488133;82.493933;1.1;11;4.14;24;;;;;;;;3829288S;08229636E;;0;;;
HAR07;2018;12;7;6;2;0;-38.489667;82.501600;0.7;26;4.14;25.5;;;;;;;;3829380S;08230096E;;0;;;
HAR07;2018;12;7;6;17;0;-38.480817;82.514600;1.0;19;4.15;23.5;;;;;;;;3828849S;08230876E;;0;;;
HAR07;2018;12;7;6;32;0;-38.478983;82.518633;2.7;16;4.15;25.5;;;;;;;;3828739S;08231118E;;0;;;
HAR07;2018;12;7;6;48;0;-38.483683;82.559867;28.;12;4.14;24;;;;;;;;3829021S;08233592E;;0;;;
HAR07;2018;12;7;7;4;0;-38.492750;82.580917;1.5;7;4.12;24;;;;;;;;3829565S;08234855E;;0;;;
HAR07;2018;12;7;7;19;0;-38.495267;82.586033;1.5;10;4.13;23.5;;;;;;;;3829716S;08235162E;;0;;;
HAR07;2018;12;7;7;34;0;-38.495717;82.590517;1.2;11;4.13;26.5;;;;;;;;3829743S;08235431E;;0;;;
HAR07;2018;12;7;7;49;0;-38.497117;82.594767;0.2;7;4.13;23.5;;;;;;;;3829827S;08235686E;;0;;;
HAR07;2018;12;7;8;5;0;-38.540700;82.599217;23.;9;4.14;20;;;;;;;;3832442S;08235953E;;0;;;
HAR07;2018;12;7;8;20;0;-38.620600;82.598867;31.;10;4.14;20;;;;;;;;3837236S;08235932E;;0;;;
HAR07;2018;12;7;8;35;0;-38.716417;82.604650;27.;9;4.14;20;;;;;;;;3842985S;08236279E;;0;;;
HAR07;2018;12;7;8;50;0;-38.784450;82.612350;28.;10;4.13;19.5;;;;;;;;3847067S;08236741E;;0;;;
HAR07;2018;12;7;9;6;0;-38.787083;82.616133;13.;10;4.13;20;;;;;;;;3847225S;08236968E;;0;;;
HAR07;2018;12;7;9;21;0;-38.836350;82.627433;25.;11;4.13;19.5;;;;;;;;3850181S;08237646E;;0;;;
HAR07;2018;12;7;9;36;0;-38.935983;82.642467;24.;9;4.13;19.5;;;;;;;;3856159S;08238548E;;0;;;
HAR07;2018;12;7;9;51;0;-38.849883;82.655967;23.;11;4.13;19.5;;;;;;;;3850993S;08239358E;;0;;;
HAR07;2018;12;7;10;7;0;-38.778267;82.652717;16.;12;4.14;20;;;;;;;;3846696S;08239163E;;0;;;
HAR07;2018;12;7;10;22;0;-38.755217;82.653250;19.;15;4.15;20.5;;;;;;;;3845313S;08239195E;;0;;;
HAR07;2018;12;7;10;38;0;-38.666650;82.649950;34.;5;4.12;23;;;;;;;;3839999S;08238997E;;0;;;
HAR07;2018;12;7;10;53;0;-38.584467;82.631100;22.;14;4.15;20;;;;;;;;3835068S;08237866E;;0;;;
HAR07;2018;12;7;11;9;0;-38.517500;82.625500;25.;9;4.12;23;;;;;;;;3831050S;08237530E;;0;;;
HAR07;2018;12;7;11;24;0;-38.450067;82.619917;25.;11;4.13;19;;;;;;;;3827004S;08237195E;;0;;;
HAR07;2018;12;7;11;39;0;-38.415117;82.631383;21.;11;4.13;18;;;;;;;;3824907S;08237883E;;0;;;
HAR07;2018;12;7;11;55;0;-38.395250;82.657250;16.;12;4.13;19;;;;;;;;3823715S;08239435E;;0;;;
HAR07;2018;12;7;12;10;0;-38.373000;82.682250;20.;10;4.13;18.5;;;;;;;;3822380S;08240935E;;0;;;
HAR07;2018;12;7;12;25;0;-38.349117;82.704067;25.;7;4.13;18.5;;;;;;;;3820947S;08242244E;;0;;;
HAR07;2018;12;7;12;40;0;-38.325117;82.728217;15.;10;4.13;18;;;;;;;;3819507S;08243693E;;0;;;
HAR07;2018;12;7;12;56;0;-38.300517;82.753017;21.;9;4.14;18.5;;;;;;;;3818031S;08245181E;;0;;;
HAR07;2018;12;7;13;11;0;-38.245367;82.746783;28.;9;4.13;18;;;;;;;;3814722S;08244807E;;0;;;
HAR07;2018;12;7;13;26;0;-38.178817;82.724500;22.;11;4.13;18;;;;;;;;3810729S;08243470E;;0;;;
HAR07;2018;12;7;13;41;0;-38.194467;82.726000;26.;9;4.13;18;;;;;;;;3811668S;08243560E;;0;;;
HAR07;2018;12;7;13;57;0;-38.242383;82.734867;22.;12;4.13;18;;;;;;;;3814543S;08244092E;;0;;;
HAR07;2018;12;7;14;12;0;-38.258150;82.728450;27.;9;4.13;18;;;;;;;;3815489S;08243707E;;0;;;
HAR07;2018;12;7;14;27;0;-38.310133;82.753933;23.;16;4.13;17.5;;;;;;;;3818608S;08245236E;;0;;;
HAR07;2018;12;7;14;43;0;-38.364733;82.781917;21.;9;4.13;18;;;;;;;;3821884S;08246915E;;0;;;
HAR07;2018;12;7;14;58;0;-38.412867;82.811517;28.;11;4.13;17.5;;;;;;;;3824772S;08248691E;;0;;;
HAR07;2018;12;7;15;13;0;-38.412667;82.816900;1.8;10;4.12;18.5;;;;;;;;3824760S;08249014E;;0;;;
HAR07;2018;12;7;15;28;0;-38.412183;82.821983;0.9;10;4.12;20.5;;;;;;;;3824731S;08249319E;;0;;;
HAR07;2018;12;7;15;44;0;-38.411800;82.826917;1.4;10;4.12;22;;;;;;;;3824708S;08249615E;;0;;;
HAR07;2018;12;7;15;59;0;-38.409983;82.831700;0.5;9;4.12;20;;;;;;;;3824599S;08249902E;;0;;;
HAR07;2018;12;7;16;14;0;-38.406367;82.836717;1.2;8;4.12;22;;;;;;;;3824382S;08250203E;;0;;;
HAR07;2018;12;7;16;29;0;-38.403017;82.840983;1.0;9;4.12;22;;;;;;;;3824181S;08250459E;;0;;;
HAR07;2018;12;7;16;45;0;-38.399750;82.845317;1.0;8;4.12;22.5;;;;;;;;3823985S;08250719E;;0;;;
HAR07;2018;12;7;17;0;0;-38.396167;82.849017;1.3;8;4.12;22.5;;;;;;;;3823770S;08250941E;;0;;;
HAR07;2018;12;7;17;15;0;-38.392667;82.853117;1.1;9;4.12;22.5;;;;;;;;3823560S;08251187E;;0;;;
HAR07;2018;12;7;17;30;0;-38.389867;82.856900;1.9;8;4.12;20;;;;;;;;3823392S;08251414E;;0;;;
HAR07;2018;12;7;17;45;0;-38.387600;82.860950;1.4;9;4.12;19.5;;;;;;;;3823256S;08251657E;;0;;;
HAR07;2018;12;7;18;1;0;-38.385383;82.864233;0.6;32;4.12;21.5;;;;;;;;3823123S;08251854E;;0;;;
HAR07;2018;12;7;18;17;0;-38.383933;82.868750;2.0;32;4.12;21;;;;;;;;3823036S;08252125E;;0;;;
HAR07;2018;12;7;18;32;0;-38.380283;82.871950;0.8;37;4.11;22;;;;;;;;3822817S;08252317E;;0;;;
HAR07;2018;12;7;18;48;0;-38.376550;82.875617;0.5;21;4.11;23;;;;;;;;3822593S;08252537E;;0;;;
HAR07;2018;12;7;19;3;0;-38.370433;82.879217;2.1;27;4.11;22.5;;;;;;;;3822226S;08252753E;;0;;;
HAR07;2018;12;7;19;19;0;-38.366900;82.882150;1.2;13;4.1;22;;;;;;;;3822014S;08252929E;;0;;;
HAR07;2018;12;7;19;34;0;-38.363150;82.885117;0.5;10;4.1;22.5;;;;;;;;3821789S;08253107E;;0;;;
HAR07;2018;12;7;19;49;0;-38.358533;82.887883;1.6;10;4.1;22;;;;;;;;3821512S;08253273E;;0;;;
HAR07;2018;12;7;20;5;0;-38.354867;82.889683;1.6;39;4.1;20.5;;;;;;;;3821292S;08253381E;;0;;;
HAR07;2018;12;7;20;20;0;-38.350600;82.892467;0.9;7;4.1;21;;;;;;;;3821036S;08253548E;;0;;;
HAR07;2018;12;7;20;35;0;-38.346017;82.894617;2.2;8;4.1;21.5;;;;;;;;3820761S;08253677E;;0;;;
HAR07;2018;12;7;20;51;0;-38.339550;82.896150;0.8;7;4.1;20;;;;;;;;3820373S;08253769E;;0;;;
HAR07;2018;12;7;21;6;0;-38.336967;82.899133;1.1;6;4.1;18;;;;;;;;3820218S;08253948E;;0;;;
HAR07;2018;12;7;21;21;0;-38.334833;82.901750;1.4;10;4.1;19;;;;;;;;3820090S;08254105E;;0;;;
HAR07;2018;12;7;21;36;0;-38.332250;82.903867;1.3;7;4.1;19;;;;;;;;3819935S;08254232E;;0;;;
HAR07;2018;12;7;21;52;0;-38.334000;82.920833;25.;10;4.1;18;;;;;;;;3820040S;08255250E;;0;;;
HAR07;2018;12;7;22;7;0;-38.338967;82.898200;8.9;44;4.09;17.5;;;;;;;;3820338S;08253892E;;0;;;
HAR07;2018;12;7;22;23;0;-38.312267;82.869383;18.;17;4.09;17.5;;;;;;;;3818736S;08252163E;;0;;;
HAR07;2018;12;7;22;38;0;-38.282500;82.877983;12.;12;4.09;17.5;;;;;;;;3816950S;08252679E;;0;;;
HAR07;2018;12;7;22;53;0;-38.305400;82.871300;15.;10;4.08;17.5;;;;;;;;3818324S;08252278E;;0;;;
HAR07;2018;12;7;23;9;0;-38.314017;82.814300;0.1;19;4.09;18;;;;;;;;3818841S;08248858E;;0;;;
HAR07;2018;12;7;23;24;0;-38.307733;82.804217;20.;14;4.08;17.5;;;;;;;;3818464S;08248253E;;0;;;
HAR07;2018;12;7;23;39;0;-38.300700;82.757467;8.2;14;4.08;18;;;;;;;;3818042S;08245448E;;0;;;
HAR07;2018;12;7;23;55;0;-38.285417;82.747250;0.3;19;4.08;17.5;;;;;;;;3817125S;08244835E;;0;;;
HAR07;2018;12;8;0;11;0;-38.286367;82.742683;0.3;33;4.08;18.5;;;;;;;;3817182S;08244561E;;0;;;
HAR07;2018;12;8;0;26;0;-38.284533;82.741883;17.;5;4.08;19;;;;;;;;3817072S;08244513E;;0;;;
HAR07;2018;12;8;0;41;0;-38.282750;82.741067;0.6;8;4.08;20;;;;;;;;3816965S;08244464E;;0;;;
HAR07;2018;12;8;0;56;0;-38.282117;82.740933;5.0;4;4.08;22;;;;;;;;3816927S;08244456E;;0;;;
HAR07;2018;12;8;1;11;0;-38.282833;82.724167;8.7;4;4.08;19.5;;;;;;;;3816970S;08243450E;;0;;;
HAR07;2018;12;8;1;27;0;-38.311133;82.702483;30.;10;4.08;19;;;;;;;;3818668S;08242149E;;0;;;
HAR07;2018;12;8;1;42;0;-38.368583;82.694117;12.;6;4.08;19;;;;;;;;3822115S;08241647E;;0;;;
HAR07;2018;12;8;1;57;0;-38.415450;82.678633;26.;9;4.08;19.5;;;;;;;;3824927S;08240718E;;0;;;
HAR07;2018;12;8;2;12;0;-38.472267;82.659600;11.;8;4.08;20;;;;;;;;3828336S;08239576E;;0;;;
HAR07;2018;12;8;2;27;0;-38.473767;82.661167;0.3;8;4.08;22.5;;;;;;;;3828426S;08239670E;;0;;;
HAR07;2018;12;8;2;43;0;-38.472167;82.667067;1.3;7;4.08;21.5;;;;;;;;3828330S;08240024E;;0;;;
HAR07;2018;12;8;2;58;0;-38.472950;82.668817;1.5;17;4.08;20.5;;;;;;;;3828377S;08240129E;;0;;;
HAR07;2018;12;8;3;13;0;-38.489933;82.682883;2.4;7;4.08;21;;;;;;;;3829396S;08240973E;;0;;;
HAR07;2018;12;8;3;28;0;-38.490783;82.687800;25.;6;4.08;22.5;;;;;;;;3829447S;08241268E;;0;;;
HAR07;2018;12;8;3;44;0;-38.494800;82.689850;0.6;7;4.08;25;;;;;;;;3829688S;08241391E;;0;;;
HAR07;2018;12;8;3;59;0;-38.494183;82.690900;0.9;12;4.08;25;;;;;;;;3829651S;08241454E;;0;;;
HAR07;2018;12;8;4;14;0;-38.494467;82.692300;0.2;12;4.08;24.5;;;;;;;;3829668S;08241538E;;0;;;
HAR07;2018;12;8;4;30;0;-38.493050;82.693867;0.6;26;4.08;26;;;;;;;;3829583S;08241632E;;0;;;
HAR07;2018;12;8;4;45;0;-38.515817;82.698083;24.;15;4.08;23.5;;;;;;;;3830949S;08241885E;;0;;;
HAR07;2018;12;8;5;0;0;-38.538667;82.690550;1.4;12;4.08;25.5;;;;;;;;3832320S;08241433E;;0;;;
HAR07;2018;12;8;5;16;0;-38.539283;82.694367;1.4;12;4.08;27.5;;;;;;;;3832357S;08241662E;;0;;;
HAR07;2018;12;8;5;31;0;-38.540100;82.698617;1.1;13;4.08;27.5;;;;;;;;3832406S;08241917E;;0;;;
HAR07;2018;12;8;5;47;0;-38.540433;82.704367;1.0;25;4.08;25;;;;;;;;3832426S;08242262E;;0;;;
HAR07;2018;12;8;6;2;0;-38.541683;82.707633;1.5;17;4.08;21;;;;;;;;3832501S;08242458E;;0;;;
HAR07;2018;12;8;6;17;0;-38.542350;82.712950;1.1;22;4.08;23;;;;;;;;3832541S;08242777E;;0;;;
HAR07;2018;12;8;6;33;0;-38.556933;82.724200;32.;15;4.09;21.5;;;;;;;;3833416S;08243452E;;0;;;
HAR07;2018;12;8;6;48;0;-38.566517;82.752767;20.;14;4.1;21;;;;;;;;3833991S;08245166E;;0;;;
HAR07;2018;12;8;7;3;0;-38.639433;82.770317;25.;12;4.11;22;;;;;;;;3838366S;08246219E;;0;;;
HAR07;2018;12;8;7;19;0;-38.696450;82.775217;12.;53;4.11;21;;;;;;;;3841787S;08246513E;;0;;;
HAR07;2018;12;8;7;36;0;-38.765067;82.780383;22.;66;4.11;21.5;;;;;;;;3845904S;08246823E;;0;;;
HAR07;2018;12;8;7;51;0;-38.764250;82.780517;21.;13;4.11;20.5;;;;;;;;3845855S;08246831E;;0;;;
HAR07;2018;12;8;8;6;0;-38.763350;82.789017;4.3;21;4.11;21.5;;;;;;;;3845801S;08247341E;;0;;;
HAR07;2018;12;8;8;22;0;-38.749467;82.793183;27.;22;4.11;21;;;;;;;;3844968S;08247591E;;0;;;
HAR07;2018;12;8;8;37;0;-38.707517;82.785633;42.;15;4.11;21;;;;;;;;3842451S;08247138E;;0;;;
HAR07;2018;12;8;8;53;0;-38.751350;82.792283;7.5;42;4.11;21;;;;;;;;3845081S;08247537E;;0;;;
HAR07;2018;12;8;9;9;0;-38.745983;82.820983;29.;62;4.11;21;;;;;;;;3844759S;08249259E;;0;;;
HAR07;2018;12;8;9;24;0;-38.743867;82.856317;0.5;15;4.11;21;;;;;;;;3844632S;08251379E;;0;;;
HAR07;2018;12;8;9;40;0;-38.740633;82.883883;0.9;11;4.11;21.5;;;;;;;;3844438S;08253033E;;0;;;
HAR07;2018;12;8;9;55;0;-38.735183;82.935083;22.;15;4.11;20.5;;;;;;;;3844111S;08256105E;;0;;;
HAR07;2018;12;8;10;10;0;-38.731250;82.970067;25.;13;4.11;20.5;;;;;;;;3843875S;08258204E;;0;;;
HAR07;2018;12;8;10;26;0;-38.727517;83.004117;38.;10;4.11;20.5;;;;;;;;3843651S;08300247E;;0;;;
HAR07;2018;12;8;10;41;0;-38.719217;83.032350;24.;12;4.11;20;;;;;;;;3843153S;08301941E;;0;;;
HAR07;2018;12;8;10;56;0;-38.709683;83.065667;22.;10;4.11;19.5;;;;;;;;3842581S;08303940E;;0;;;
HAR07;2018;12;8;11;11;0;-38.701283;83.098083;9.2;9;4.11;19.5;;;;;;;;3842077S;08305885E;;0;;;
HAR07;2018;12;8;11;27;0;-38.690250;83.129567;12.;13;4.11;18.5;;;;;;;;3841415S;08307774E;;0;;;
HAR07;2018;12;8;11;42;0;-38.685717;83.151367;18.;11;4.1;18;;;;;;;;3841143S;08309082E;;0;;;
HAR07;2018;12;8;11;57;0;-38.673850;83.181000;15.;8;4.1;17;;;;;;;;3840431S;08310860E;;0;;;
HAR07;2018;12;8;12;12;0;-38.668983;83.197583;46.;10;4.1;17.5;;;;;;;;3840139S;08311855E;;0;;;
HAR07;2018;12;8;12;28;0;-38.682117;83.195650;25.;9;4.1;17.5;;;;;;;;3840927S;08311739E;;0;;;
HAR07;2018;12;8;12;43;0;-38.693333;83.182567;17.;9;4.1;18;;;;;;;;3841600S;08310954E;;0;;;
HAR07;2018;12;8;12;58;0;-38.772833;83.180567;17.;8;4.1;17.5;;;;;;;;3846370S;08310834E;;0;;;
HAR07;2018;12;8;13;13;0;-38.836600;83.178800;13.;8;4.1;17.5;;;;;;;;3850196S;08310728E;;0;;;
HAR07;2018;12;8;13;29;0;-38.880267;83.174117;41.;9;4.1;17.5;;;;;;;;3852816S;08310447E;;0;;;
HAR07;2018;12;8;13;44;0;-38.911900;83.138317;11.;11;4.09;17.5;;;;;;;;3854714S;08308299E;;0;;;
HAR07;2018;12;8;13;59;0;-38.919083;83.126083;23.;11;4.09;16.5;;;;;;;;3855145S;08307565E;;0;;;
HAR07;2018;12;8;14;14;0;-38.937433;83.125983;0.6;9;4.09;17;;;;;;;;3856246S;08307559E;;0;;;
HAR07;2018;12;8;14;30;0;-38.963400;83.136017;24.;8;4.09;17.5;;;;;;;;3857804S;08308161E;;0;;;
HAR07;2018;12;8;14;45;0;-38.998500;83.143050;29.;8;4.09;17;;;;;;;;3859910S;08308583E;;0;;;
HAR07;2018;12;8;15;0;0;-39.016417;83.143100;1.2;10;4.09;17.5;;;;;;;;3900985S;08308586E;;0;;;
HAR07;2018;12;8;15;15;0;-39.018550;83.145017;0.5;9;4.09;18.5;;;;;;;;3901113S;08308701E;;0;;;
HAR07;2018;12;8;15;31;0;-39.021333;83.146983;0.6;10;4.09;21.5;;;;;;;;3901280S;08308819E;;0;;;
HAR07;2018;12;8;15;46;0;-39.023717;83.148583;1.1;9;4.08;22;;;;;;;;3901423S;08308915E;;0;;;
HAR07;2018;12;8;16;1;0;-39.026383;83.151250;0.4;9;4.08;22.5;;;;;;;;3901583S;08309075E;;0;;;
HAR07;2018;12;8;16;16;0;-39.028733;83.153517;0.9;17;4.08;20;;;;;;;;3901724S;08309211E;;0;;;
HAR07;2018;12;8;16;32;0;-39.031417;83.155567;0.7;12;4.08;22.5;;;;;;;;3901885S;08309334E;;0;;;
HAR07;2018;12;8;16;47;0;-39.032850;83.158967;0.8;17;4.08;21;;;;;;;;3901971S;08309538E;;0;;;
HAR07;2018;12;8;17;3;0;-39.036017;83.159933;1.3;38;4.08;22;;;;;;;;3902161S;08309596E;;0;;;
HAR07;2018;12;8;17;18;0;-39.038533;83.162267;0.3;7;4.08;23;;;;;;;;3902312S;08309736E;;0;;;
HAR07;2018;12;8;17;33;0;-39.041033;83.164433;1.3;7;4.08;22;;;;;;;;3902462S;08309866E;;0;;;
HAR07;2018;12;8;17;48;0;-39.043733;83.166867;1.5;8;4.08;23;;;;;;;;3902624S;08310012E;;0;;;
HAR07;2018;12;8;18;4;0;-39.046400;83.169600;0.8;8;4.08;23;;;;;;;;3902784S;08310176E;;0;;;
HAR07;2018;12;8;18;19;0;-39.048900;83.172750;0.4;7;4.08;22.5;;;;;;;;3902934S;08310365E;;0;;;
HAR07;2018;12;8;18;34;0;-39.051433;83.176250;2.5;14;4.08;22.5;;;;;;;;3903086S;08310575E;;0;;;
HAR07;2018;12;8;18;49;0;-39.053717;83.180000;0.8;7;4.08;22;;;;;;;;3903223S;08310800E;;0;;;
HAR07;2018;12;8;19;5;0;-39.055567;83.183650;1.0;8;4.08;20.5;;;;;;;;3903334S;08311019E;;0;;;
HAR07;2018;12;8;19;20;0;-39.057450;83.186817;0.6;7;4.08;22;;;;;;;;3903447S;08311209E;;0;;;
HAR07;2018;12;8;19;35;0;-39.059083;83.190817;0.5;13;4.08;22;;;;;;;;3903545S;08311449E;;0;;;
HAR07;2018;12;8;19;50;0;-39.061433;83.194083;3.6;8;4.08;19.5;;;;;;;;3903686S;08311645E;;0;;;
HAR07;2018;12;8;20;6;0;-39.062267;83.197633;2.2;9;4.07;20;;;;;;;;3903736S;08311858E;;0;;;
HAR07;2018;12;8;20;21;0;-39.063667;83.202250;1.0;7;4.07;21.5;;;;;;;;3903820S;08312135E;;0;;;
HAR07;2018;12;8;20;36;0;-39.063783;83.205200;1.5;10;4.07;20.5;;;;;;;;3903827S;08312312E;;0;;;
HAR07;2018;12;8;20;51;0;-39.064333;83.209517;0.3;6;4.07;21.5;;;;;;;;3903860S;08312571E;;0;;;
HAR07;2018;12;8;21;7;0;-39.065150;83.214400;2.4;6;4.07;22.5;;;;;;;;3903909S;08312864E;;0;;;
HAR07;2018;12;8;21;22;0;-39.065817;83.219250;1.5;8;4.07;22;;;;;;;;3903949S;08313155E;;0;;;
HAR07;2018;12;8;21;37;0;-39.066617;83.223633;0.8;10;4.07;20.5;;;;;;;;3903997S;08313418E;;0;;;
HAR07;2018;12;8;21;52;0;-39.068833;83.227833;1.4;6;4.07;18.5;;;;;;;;3904130S;08313670E;;0;;;
HAR07;2018;12;8;22;8;0;-39.088417;83.228633;14.;11;4.07;17.5;;;;;;;;3905305S;08313718E;;0;;;
HAR07;2018;12;8;22;23;0;-39.134367;83.199867;19.;9;4.07;16.5;;;;;;;;3908062S;08311992E;;0;;;
HAR07;2018;12;8;22;38;0;-39.201567;83.160133;20.;10;4.07;17;;;;;;;;3912094S;08309608E;;0;;;
HAR07;2018;12;8;22;53;0;-39.281217;83.135617;18.;12;4.07;17;;;;;;;;3916873S;08308137E;;0;;;
HAR07;2018;12;8;23;9;0;-39.354650;83.114783;13.;8;4.07;16.5;;;;;;;;3921279S;08306887E;;0;;;
HAR07;2018;12;8;23;24;0;-39.434950;83.089950;18.;10;4.07;17;;;;;;;;3926097S;08305397E;;0;;;
HAR07;2018;12;8;23;39;0;-39.517717;83.080300;23.;9;4.07;17;;;;;;;;3931063S;08304818E;;0;;;
HAR07;2018;12;8;23;54;0;-39.574117;83.099500;14.;14;4.07;17.5;;;;;;;;3934447S;08305970E;;0;;;
HAR07;2018;12;9;0;10;0;-39.611800;83.099083;26.;15;4.07;17;;;;;;;;3936708S;08305945E;;0;;;
HAR07;2018;12;9;0;26;0;-39.682967;83.110833;0.0;43;4.07;16.5;;;;;;;;3940978S;08306650E;;0;;;
HAR07;2018;12;9;0;41;0;-39.700000;83.108800;30.;10;4.07;17;;;;;;;;3942000S;08306528E;;0;;;
HAR07;2018;12;9;0;56;0;-39.692650;83.081900;18.;9;4.07;17;;;;;;;;3941559S;08304914E;;0;;;
HAR07;2018;12;9;1;11;0;-39.747217;83.061433;43.;9;4.06;17;;;;;;;;3944833S;08303686E;;0;;;
HAR07;2018;12;9;1;27;0;-39.781733;83.045283;13.;10;4.07;18;;;;;;;;3946904S;08302717E;;0;;;
HAR07;2018;12;9;1;42;0;-39.772100;83.061217;10.;12;4.06;17.5;;;;;;;;3946326S;08303673E;;0;;;
HAR07;2018;12;9;1;57;0;-39.793200;83.059933;16.;7;4.06;17.5;;;;;;;;3947592S;08303596E;;0;;;
HAR07;2018;12;9;2;12;0;-39.813983;83.073550;18.;11;4.06;18.5;;;;;;;;3948839S;08304413E;;0;;;
HAR07;2018;12;9;2;28;0;-39.813250;83.095550;44.;10;4.06;17.5;;;;;;;;3948795S;08305733E;;0;;;
HAR07;2018;12;9;2;43;0;-39.784150;83.103500;28.;11;4.06;17.5;;;;;;;;3947049S;08306210E;;0;;;
HAR07;2018;12;9;2;58;0;-39.780967;83.079300;24.;8;4.06;17.5;;;;;;;;3946858S;08304758E;;0;;;
HAR07;2018;12;9;3;13;0;-39.840767;83.053533;16.;8;4.06;17.5;;;;;;;;3950446S;08303212E;;0;;;
HAR07;2018;12;9;3;29;0;-39.845450;83.035583;42.;8;4.06;18;;;;;;;;3950727S;08302135E;;0;;;
HAR07;2018;12;9;3;44;0;-39.920517;82.992883;29.;48;4.06;18.5;;;;;;;;3955231S;08259573E;;0;;;
HAR07;2018;12;9;4;0;0;-39.948400;82.992200;42.;10;4.06;18;;;;;;;;3956904S;08259532E;;0;;;
HAR07;2018;12;9;4;15;0;-39.977783;82.959600;22.;10;4.06;18;;;;;;;;3958667S;08257576E;;0;;;
HAR07;2018;12;9;4;30;0;-40.049700;82.927967;16.;10;4.06;18.5;;;;;;;;4002982S;08255678E;;0;;;
HAR07;2018;12;9;4;46;0;-40.081467;82.879517;16.;15;4.06;18.5;;;;;;;;4004888S;08252771E;;0;;;
HAR07;2018;12;9;5;1;0;-40.140250;82.835967;15.;13;4.05;18.5;;;;;;;;4008415S;08250158E;;0;;;
HAR07;2018;12;9;5;16;0;-40.190300;82.800833;2.1;16;4.06;19.5;;;;;;;;4011418S;08248050E;;0;;;
HAR07;2018;12;9;5;32;0;-40.127333;82.806417;15.;28;4.06;18.5;;;;;;;;4007640S;08248385E;;0;;;
HAR07;2018;12;9;5;47;0;-40.051200;82.814467;11.;18;4.06;18;;;;;;;;4003072S;08248868E;;0;;;
HAR07;2018;12;9;6;2;0;-39.966233;82.821667;27.;12;4.05;18;;;;;;;;3957974S;08249300E;;0;;;
HAR07;2018;12;9;6;18;0;-39.882917;82.842717;26.;11;4.06;19;;;;;;;;3952975S;08250563E;;0;;;
HAR07;2018;12;9;6;33;0;-39.829717;82.851867;21.;23;4.06;18.5;;;;;;;;3949783S;08251112E;;0;;;
HAR07;2018;12;9;6;49;0;-39.809117;82.863050;30.;16;4.06;19;;;;;;;;3948547S;08251783E;;0;;;
HAR07;2018;12;9;7;5;0;-39.716067;82.903700;15.;61;4.05;19;;;;;;;;3942964S;08254222E;;0;;;
HAR07;2018;12;9;7;23;0;-39.633583;82.905567;31.;173;4.05;19;;;;;;;;3938015S;08254334E;;0;;;
HAR07;2018;12;9;7;38;0;-39.539050;82.920250;18.;22;4.05;19.5;;;;;;;;3932343S;08255215E;;0;;;
HAR07;2018;12;9;7;54;0;-39.485533;82.942483;0.2;20;4.05;19;;;;;;;;3929132S;08256549E;;0;;;
HAR07;2018;12;9;8;9;0;-39.489867;82.964000;2.2;14;4.05;19;;;;;;;;3929392S;08257840E;;0;;;
HAR07;2018;12;9;8;24;0;-39.478300;82.995883;18.;9;4.05;18.5;;;;;;;;3928698S;08259753E;;0;;;
HAR07;2018;12;9;8;39;0;-39.474833;83.028117;25.;12;4.05;18;;;;;;;;3928490S;08301687E;;0;;;
HAR07;2018;12;9;8;55;0;-39.394317;83.017433;25.;15;4.05;18;;;;;;;;3923659S;08301046E;;0;;;
HAR07;2018;12;9;9;10;0;-39.325117;83.014917;30.;13;4.04;18;;;;;;;;3919507S;08300895E;;0;;;
HAR07;2018;12;9;9;25;0;-39.287917;82.994467;15.;12;4.04;17.5;;;;;;;;3917275S;08259668E;;0;;;
HAR07;2018;12;9;9;41;0;-39.207133;82.992133;19.;14;4.04;18.5;;;;;;;;3912428S;08259528E;;0;;;
HAR07;2018;12;9;9;56;0;-39.159217;83.012983;12.;15;4.04;18.5;;;;;;;;3909553S;08300779E;;0;;;
HAR07;2018;12;9;10;11;0;-39.081500;83.030750;18.;12;4.04;18.5;;;;;;;;3904890S;08301845E;;0;;;
HAR07;2018;12;9;10;27;0;-39.067900;83.051433;25.;12;4.03;18;;;;;;;;3904074S;08303086E;;0;;;
HAR07;2018;12;9;10;42;0;-38.974833;83.070433;8.3;10;4.03;18;;;;;;;;3858490S;08304226E;;0;;;
HAR07;2018;12;9;10;57;0;-38.895100;83.075817;25.;19;4.03;18.5;;;;;;;;3853706S;08304549E;;0;;;
HAR07;2018;12;9;11;13;0;-38.807117;83.081833;19.;22;4.03;18.5;;;;;;;;3848427S;08304910E;;0;;;
HAR07;2018;12;9;11;28;0;-38.715733;83.079600;28.;22;4.03;18.5;;;;;;;;3842944S;08304776E;;0;;;
HAR07;2018;12;9;11;44;0;-38.653317;83.072017;13.;13;4.02;18.5;;;;;;;;3839199S;08304321E;;0;;;
HAR07;2018;12;9;11;59;0;-38.572467;83.058950;21.;12;4.02;18.5;;;;;;;;3834348S;08303537E;;0;;;
HAR07;2018;12;9;12;17;0;-38.552567;83.095950;50.;181;4.02;18.5;;;;;;;;3833154S;08305757E;;0;;;
HAR07;2018;12;9;12;32;0;-38.538650;83.128917;31.;21;4.01;19;;;;;;;;3832319S;08307735E;;0;;;
HAR07;2018;12;9;12;48;0;-38.524167;83.161183;17.;9;4;18;;;;;;;;3831450S;08309671E;;0;;;
HAR07;2018;12;9;13;3;0;-38.510783;83.190117;4.4;14;4;18;;;;;;;;3830647S;08311407E;;0;;;
HAR07;2018;12;9;13;18;0;-38.497267;83.225033;8.0;26;4;17.5;;;;;;;;3829836S;08313502E;;0;;;
HAR07;2018;12;9;13;34;0;-38.485283;83.247100;1.3;17;4;17.5;;;;;;;;3829117S;08314826E;;0;;;
HAR07;2018;12;9;13;49;0;-38.477317;83.285200;33.;20;4;18;;;;;;;;3828639S;08317112E;;0;;;
HAR07;2018;12;9;14;5;0;-38.477667;83.282433;5.9;21;3.99;18;;;;;;;;3828660S;08316946E;;0;;;
HAR07;2018;12;9;14;20;0;-38.529533;83.266333;30.;10;3.99;18;;;;;;;;3831772S;08315980E;;0;;;
HAR07;2018;12;9;14;35;0;-38.588567;83.251367;9.1;19;3.99;18;;;;;;;;3835314S;08315082E;;0;;;
HAR07;2018;12;9;14;51;0;-38.644750;83.248200;12.;23;3.99;18;;;;;;;;3838685S;08314892E;;0;;;
HAR07;2018;12;9;15;6;0;-38.645533;83.251233;0.8;19;3.98;18.5;;;;;;;;3838732S;08315074E;;0;;;
HAR07;2018;12;9;15;22;0;-38.645967;83.254733;0.8;21;3.98;20;;;;;;;;3838758S;08315284E;;0;;;
HAR07;2018;12;9;15;37;0;-38.646567;83.257283;1.4;12;3.98;19;;;;;;;;3838794S;08315437E;;0;;;
HAR07;2018;12;9;15;52;0;-38.647300;83.260767;2.1;15;3.98;20;;;;;;;;3838838S;08315646E;;0;;;
HAR07;2018;12;9;16;8;0;-38.647967;83.264033;1.0;14;3.98;20.5;;;;;;;;3838878S;08315842E;;0;;;
HAR07;2018;12;9;16;23;0;-38.648783;83.267367;0.5;16;3.98;20.5;;;;;;;;3838927S;08316042E;;0;;;
HAR07;2018;12;9;16;38;0;-38.649050;83.270600;0.5;19;3.98;18;;;;;;;;3838943S;08316236E;;0;;;
HAR07;2018;12;9;16;54;0;-38.648967;83.272717;0.2;18;3.98;18;;;;;;;;3838938S;08316363E;;0;;;
HAR07;2018;12;9;17;9;0;-38.649350;83.276100;1.4;13;3.98;20.5;;;;;;;;3838961S;08316566E;;0;;;
HAR07;2018;12;9;17;24;0;-38.648350;83.278483;1.2;13;3.98;19;;;;;;;;3838901S;08316709E;;0;;;
HAR07;2018;12;9;17;40;0;-38.648300;83.281583;1.3;12;3.98;19.5;;;;;;;;3838898S;08316895E;;0;;;
HAR07;2018;12;9;17;55;0;-38.646867;83.285133;1.1;14;3.98;21.5;;;;;;;;3838812S;08317108E;;0;;;
HAR07;2018;12;9;18;10;0;-38.645250;83.288667;1.0;8;3.98;21;;;;;;;;3838715S;08317320E;;0;;;
HAR07;2018;12;9;18;26;0;-38.643367;83.292117;2.1;8;3.97;21;;;;;;;;3838602S;08317527E;;0;;;
HAR07;2018;12;9;18;41;0;-38.641717;83.295783;0.2;9;3.97;21;;;;;;;;3838503S;08317747E;;0;;;
HAR07;2018;12;9;18;56;0;-38.639800;83.300067;2.5;10;3.97;21.5;;;;;;;;3838388S;08318004E;;0;;;
HAR07;2018;12;9;19;11;0;-38.639367;83.304050;0.8;11;3.97;19;;;;;;;;3838362S;08318243E;;0;;;
HAR07;2018;12;9;19;27;0;-38.638383;83.307383;2.7;16;3.97;21;;;;;;;;3838303S;08318443E;;0;;;
HAR07;2018;12;9;19;42;0;-38.636783;83.311583;0.6;11;3.97;21;;;;;;;;3838207S;08318695E;;0;;;
HAR07;2018;12;9;19;57;0;-38.634400;83.315233;0.4;12;3.97;21.5;;;;;;;;3838064S;08318914E;;0;;;
HAR07;2018;12;9;20;13;0;-38.632467;83.319767;1.0;10;3.97;21;;;;;;;;3837948S;08319186E;;0;;;
HAR07;2018;12;9;20;28;0;-38.632950;83.323167;0.9;15;3.97;18.5;;;;;;;;3837977S;08319390E;;0;;;
HAR07;2018;12;9;20;43;0;-38.632817;83.326583;0.7;9;3.96;19;;;;;;;;3837969S;08319595E;;0;;;
HAR07;2018;12;9;20;58;0;-38.633483;83.329300;0.8;16;3.96;18.5;;;;;;;;3838009S;08319758E;;0;;;
HAR07;2018;12;9;21;14;0;-38.632733;83.332233;0.2;51;3.96;18;;;;;;;;3837964S;08319934E;;0;;;
HAR07;2018;12;9;21;30;0;-38.631833;83.334967;0.8;8;3.96;18.5;;;;;;;;3837910S;08320098E;;0;;;
HAR07;2018;12;9;21;45;0;-38.630633;83.338083;1.2;12;3.96;17.5;;;;;;;;3837838S;08320285E;;0;;;
HAR07;2018;12;9;22;1;0;-38.635867;83.338200;18.;37;3.95;17;;;;;;;;3838152S;08320292E;;0;;;
HAR07;2018;12;9;22;16;0;-38.668650;83.337783;6.2;37;3.95;16.5;;;;;;;;3840119S;08320267E;;0;;;
HAR07;2018;12;9;22;32;0;-38.720200;83.344300;7.4;31;3.95;17;;;;;;;;3843212S;08320658E;;0;;;
HAR07;2018;12;9;22;47;0;-38.780000;83.354983;16.;17;3.95;17;;;;;;;;3846800S;08321299E;;0;;;
HAR07;2018;12;9;23;3;0;-38.826717;83.353467;20.;25;3.95;17.5;;;;;;;;3849603S;08321208E;;0;;;
HAR07;2018;12;9;23;19;0;-38.843950;83.363533;22.;64;3.95;17;;;;;;;;3850637S;08321812E;;0;;;
HAR07;2018;12;9;23;34;0;-38.864167;83.358317;12.;13;3.95;17.5;;;;;;;;3851850S;08321499E;;0;;;
HAR07;2018;12;9;23;50;0;-38.850067;83.348967;3.5;38;3.95;17;;;;;;;;3851004S;08320938E;;0;;;
HAR07;2018;12;10;0;6;0;-38.852067;83.349600;1.0;49;3.95;17.5;;;;;;;;3851124S;08320976E;;0;;;
HAR07;2018;12;10;0;21;0;-38.885300;83.348650;16.;6;3.94;18;;;;;;;;3853118S;08320919E;;0;;;
HAR07;2018;12;10;0;36;0;-38.893567;83.348017;2.6;6;3.95;17.5;;;;;;;;3853614S;08320881E;;0;;;
HAR07;2018;12;10;0;52;0;-38.901000;83.337133;13.;14;3.95;18.5;;;;;;;;3854060S;08320228E;;0;;;
HAR07;2018;12;10;1;7;0;-38.923000;83.317433;9.9;13;3.95;18.5;;;;;;;;3855380S;08319046E;;0;;;
HAR07;2018;12;10;1;22;0;-38.945617;83.297233;16.;19;3.95;18;;;;;;;;3856737S;08317834E;;0;;;
HAR07;2018;12;10;1;38;0;-38.968250;83.286983;13.;56;3.95;18;;;;;;;;3858095S;08317219E;;0;;;
HAR07;2018;12;10;1;54;0;-38.956617;83.302333;12.;10;3.94;18.5;;;;;;;;3857397S;08318140E;;0;;;
HAR07;2018;12;10;2;9;0;-38.966500;83.297083;14.;7;3.94;20.5;;;;;;;;3857990S;08317825E;;0;;;
HAR07;2018;12;10;2;24;0;-39.003583;83.285817;13.;13;3.95;19;;;;;;;;3900215S;08317149E;;0;;;
HAR07;2018;12;10;2;40;0;-39.000883;83.273217;7.2;13;3.95;18.5;;;;;;;;3900053S;08316393E;;0;;;
HAR07;2018;12;10;2;55;0;-39.014450;83.259100;5.7;44;3.95;18.5;;;;;;;;3900867S;08315546E;;0;;;
HAR07;2018;12;10;3;11;0;-39.011550;83.272150;10.;23;3.94;18.5;;;;;;;;3900693S;08316329E;;0;;;
HAR07;2018;12;10;3;27;0;-39.018800;83.259867;9.7;39;3.94;18.5;;;;;;;;3901128S;08315592E;;0;;;
HAR07;2018;12;10;3;43;0;-39.084883;83.291533;8.1;81;3.94;19;;;;;;;;3905093S;08317492E;;0;;;
HAR07;2018;12;10;4;1;0;-39.430617;83.683167;159;154;3.94;21.5;;;;;;;;3925837S;08340990E;;0;;;
HAR07;2018;12;10;4;19;12;;;;;;;;;;1;;;;;;;0;;;
HAR07;2018;12;10;4;34;0;-39.080850;83.351183;12.;23;3.93;23;;;;;;;;3904851S;08321071E;;0;;;
HAR07;2018;12;10;4;50;0;-39.056733;83.321117;18.;9;3.93;20.5;;;;;;;;3903404S;08319267E;;0;;;
HAR07;2018;12;10;5;5;0;-39.091467;83.303067;19.;17;3.93;20.5;;;;;;;;3905488S;08318184E;;0;;;
HAR07;2018;12;10;5;20;0;-39.106417;83.272400;14.;7;3.93;20;;;;;;;;3906385S;08316344E;;0;;;
HAR07;2018;12;10;5;35;0;-39.108967;83.315033;34.;8;3.93;19.5;;;;;;;;3906538S;08318902E;;0;;;
HAR07;2018;12;10;5;51;0;-39.104167;83.348350;22.;27;3.93;18.5;;;;;;;;3906250S;08320901E;;0;;;
HAR07;2018;12;10;6;7;0;-39.099283;83.383467;42.;33;3.93;18.5;;;;;;;;3905957S;08323008E;;0;;;
HAR07;2018;12;10;6;22;0;-39.097567;83.413050;15.;29;3.93;19.5;;;;;;;;3905854S;08324783E;;0;;;
HAR07;2018;12;10;6;38;0;-39.135500;83.393850;13.;26;3.93;20.5;;;;;;;;3908130S;08323631E;;0;;;
HAR07;2018;12;10;6;53;0;-39.103183;83.364333;8.8;41;3.93;22;;;;;;;;3906191S;08321860E;;0;;;
HAR07;2018;12;10;7;9;0;-39.103150;83.323400;0.8;30;3.93;21;;;;;;;;3906189S;08319404E;;0;;;
HAR07;2018;12;10;7;25;0;-39.136733;83.309317;16.;25;3.93;20;;;;;;;;3908204S;08318559E;;0;;;
HAR07;2018;12;10;7;40;0;-39.141833;83.296033;16.;32;3.93;19;;;;;;;;3908510S;08317762E;;0;;;
HAR07;2018;12;10;7;56;0;-39.136250;83.288367;7.0;35;3.93;20;;;;;;;;3908175S;08317302E;;0;;;
HAR07;2018;12;10;8;12;0;-39.135933;83.290900;38.;60;3.92;21.5;;;;;;;;3908156S;08317454E;;0;;;
HAR07;2018;12;10;8;28;0;-39.137767;83.293917;1.9;29;3.92;23;;;;;;;;3908266S;08317635E;;0;;;
HAR07;2018;12;10;8;43;0;-39.138167;83.295917;2.5;8;3.92;22;;;;;;;;3908290S;08317755E;;0;;;
HAR07;2018;12;10;8;58;0;-39.138650;83.298833;2.1;12;3.92;21;;;;;;;;3908319S;08317930E;;0;;;
HAR07;2018;12;10;9;13;0;-39.139167;83.300567;2.0;12;3.91;21;;;;;;;;3908350S;08318034E;;0;;;
HAR07;2018;12;10;9;29;0;-39.142633;83.294083;23.;13;3.92;20;;;;;;;;3908558S;08317645E;;0;;;
HAR07;2018;12;10;9;44;0;-39.134983;83.260067;21.;17;3.92;19.5;;;;;;;;3908099S;08315604E;;0;;;
HAR07;2018;12;10;9;59;0;-39.174117;83.240900;24.;12;3.92;20;;;;;;;;3910447S;08314454E;;0;;;
HAR07;2018;12;10;10;15;0;-39.196383;83.210033;16.;23;3.92;18.5;;;;;;;;3911783S;08312602E;;0;;;
HAR07;2018;12;10;10;30;0;-39.186167;83.180017;14.;15;3.92;18;;;;;;;;3911170S;08310801E;;0;;;
HAR07;2018;12;10;10;46;0;-39.133933;83.149550;16.;21;3.92;17.5;;;;;;;;3908036S;08308973E;;0;;;
HAR07;2018;12;10;11;3;0;-39.086917;83.118400;10.;158;3.92;18;;;;;;;;3905215S;08307104E;;0;;;
HAR07;2018;12;10;11;19;0;-39.066317;83.088233;19.;12;3.91;18;;;;;;;;3903979S;08305294E;;0;;;
HAR07;2018;12;10;11;34;0;-39.020533;83.047133;13.;30;3.91;18.5;;;;;;;;3901232S;08302828E;;0;;;
HAR07;2018;12;10;11;51;0;-38.960383;83.012800;15.;124;3.91;18;;;;;;;;3857623S;08300768E;;0;;;
HAR07;2018;12;10;12;7;0;-38.961033;82.980567;6.4;16;3.91;18;;;;;;;;3857662S;08258834E;;0;;;
HAR07;2018;12;10;12;22;0;-38.936683;82.982767;8.4;16;3.91;17;;;;;;;;3856201S;08258966E;;0;;;
HAR07;2018;12;10;12;37;0;-38.931100;82.975233;17.;12;3.91;17.5;;;;;;;;3855866S;08258514E;;0;;;
HAR07;2018;12;10;12;53;0;-38.936200;82.961500;22.;22;3.9;17.5;;;;;;;;3856172S;08257690E;;0;;;
HAR07;2018;12;10;13;10;0;-38.899367;82.946950;20.;116;3.9;17.5;;;;;;;;3853962S;08256817E;;0;;;
HAR07;2018;12;10;13;25;0;-38.860533;82.921733;6.5;5;3.9;17.5;;;;;;;;3851632S;08255304E;;0;;;
HAR07;2018;12;10;13;40;0;-38.852433;82.900567;20.;5;3.89;17.5;;;;;;;;3851146S;08254034E;;0;;;
HAR07;2018;12;10;13;56;0;-38.838317;82.877717;28.;11;3.9;18;;;;;;;;3850299S;08252663E;;0;;;
HAR07;2018;12;10;14;11;0;-38.874683;82.865383;16.;11;3.89;17.5;;;;;;;;3852481S;08251923E;;0;;;
HAR07;2018;12;10;14;28;0;-38.899983;82.856800;2.4;95;3.89;17;;;;;;;;3853999S;08251408E;;0;;;
HAR07;2018;12;10;14;43;0;-38.930667;82.850850;0.8;12;3.89;17.5;;;;;;;;3855840S;08251051E;;0;;;
HAR07;2018;12;10;14;58;0;-38.930167;82.855650;2.2;14;3.89;18.5;;;;;;;;3855810S;08251339E;;0;;;
HAR07;2018;12;10;15;13;0;-38.929850;82.859717;0.9;11;3.89;18.5;;;;;;;;3855791S;08251583E;;0;;;
HAR07;2018;12;10;15;29;0;-38.930117;82.863350;0.6;14;3.88;20.5;;;;;;;;3855807S;08251801E;;0;;;
HAR07;2018;12;10;15;44;0;-38.930633;82.867250;0.5;20;3.88;22;;;;;;;;3855838S;08252035E;;0;;;
HAR07;2018;12;10;15;59;0;-38.931567;82.870817;0.7;8;3.88;21.5;;;;;;;;3855894S;08252249E;;0;;;
HAR07;2018;12;10;16;15;0;-38.932033;82.874967;0.5;28;3.88;21;;;;;;;;3855922S;08252498E;;0;;;
HAR07;2018;12;10;16;30;0;-38.932367;82.878333;0.9;4;3.88;18.5;;;;;;;;3855942S;08252700E;;0;;;
HAR07;2018;12;10;16;45;0;-38.931067;82.882567;0.9;5;3.88;21;;;;;;;;3855864S;08252954E;;0;;;
HAR07;2018;12;10;17;1;0;-38.929733;82.886750;1.4;5;3.88;21.5;;;;;;;;3855784S;08253205E;;0;;;
HAR07;2018;12;10;17;16;0;-38.928800;82.891267;0.4;5;3.88;22;;;;;;;;3855728S;08253476E;;0;;;
HAR07;2018;12;10;17;31;0;-38.927633;82.895500;0.9;5;3.88;20.5;;;;;;;;3855658S;08253730E;;0;;;
HAR07;2018;12;10;17;46;0;-38.925933;82.900350;2.8;9;3.88;22;;;;;;;;3855556S;08254021E;;0;;;
HAR07;2018;12;10;18;1;0;-38.924700;82.904783;1.0;6;3.88;21;;;;;;;;3855482S;08254287E;;0;;;
HAR07;2018;12;10;18;17;0;-38.923300;82.909733;1.9;8;3.88;21.5;;;;;;;;3855398S;08254584E;;0;;;
HAR07;2018;12;10;18;32;0;-38.921817;82.914000;0.7;6;3.88;20;;;;;;;;3855309S;08254840E;;0;;;
HAR07;2018;12;10;18;47;0;-38.921217;82.917050;0.2;11;3.88;18.5;;;;;;;;3855273S;08255023E;;0;;;
HAR07;2018;12;10;19;3;0;-38.920217;82.920183;0.8;23;3.88;18.5;;;;;;;;3855213S;08255211E;;0;;;
HAR07;2018;12;10;19;18;0;-38.920683;82.923683;0.3;7;3.88;20.5;;;;;;;;3855241S;08255421E;;0;;;
HAR07;2018;12;10;19;33;0;-38.921667;82.927150;0.6;14;3.88;21;;;;;;;;3855300S;08255629E;;0;;;
HAR07;2018;12;10;19;48;0;-38.922033;82.931283;0.9;14;3.88;21.5;;;;;;;;3855322S;08255877E;;0;;;
HAR07;2018;12;10;20;4;0;-38.922167;82.933683;0.4;31;3.88;19;;;;;;;;3855330S;08256021E;;0;;;
HAR07;2018;12;10;20;19;0;-38.920750;82.937350;0.3;8;3.88;20.5;;;;;;;;3855245S;08256241E;;0;;;
HAR07;2018;12;10;20;35;0;-38.919267;82.940967;1.5;13;3.87;22;;;;;;;;3855156S;08256458E;;0;;;
HAR07;2018;12;10;20;50;0;-38.917800;82.944817;1.6;12;3.87;22.5;;;;;;;;3855068S;08256689E;;0;;;
HAR07;2018;12;10;21;5;0;-38.918350;82.947433;0.2;16;3.87;19;;;;;;;;3855101S;08256846E;;0;;;
HAR07;2018;12;10;21;21;0;-38.919717;82.949767;0.4;27;3.87;19.5;;;;;;;;3855183S;08256986E;;0;;;
HAR07;2018;12;10;21;37;0;-38.920967;82.952183;1.0;40;3.87;19;;;;;;;;3855258S;08257131E;;0;;;
HAR07;2018;12;10;21;52;0;-38.921417;82.955017;1.9;7;3.87;18;;;;;;;;3855285S;08257301E;;0;;;
HAR07;2018;12;10;22;7;0;-38.909067;82.951750;14.;11;3.87;18;;;;;;;;3854544S;08257105E;;0;;;
HAR07;2018;12;10;22;22;0;-38.906950;82.933117;21.;13;3.87;17.5;;;;;;;;3854417S;08255987E;;0;;;
HAR07;2018;12;10;22;38;0;-38.926400;82.907017;12.;9;3.87;17.5;;;;;;;;3855584S;08254421E;;0;;;
HAR07;2018;12;10;22;53;0;-38.908583;82.876733;21.;8;3.87;17.5;;;;;;;;3854515S;08252604E;;0;;;
HAR07;2018;12;10;23;8;0;-38.945100;82.838183;18.;9;3.87;17.5;;;;;;;;3856706S;08250291E;;0;;;
HAR07;2018;12;10;23;23;0;-38.991583;82.800583;16.;9;3.87;18;;;;;;;;3859495S;08248035E;;0;;;
HAR07;2018;12;10;23;39;0;-39.045417;82.765333;19.;9;3.86;17.5;;;;;;;;3902725S;08245920E;;0;;;
HAR07;2018;12;10;23;54;0;-39.028717;82.724017;18.;10;3.86;17.5;;;;;;;;3901723S;08243441E;;0;;;
HAR07;2018;12;11;0;9;0;-39.031717;82.684967;19.;12;3.86;17.5;;;;;;;;3901903S;08241098E;;0;;;
HAR07;2018;12;11;0;25;0;-39.037300;82.649933;18.;21;3.86;18.5;;;;;;;;3902238S;08238996E;;0;;;
HAR07;2018;12;11;0;40;0;-39.053300;82.607683;15.;18;3.86;18.5;;;;;;;;3903198S;08236461E;;0;;;
HAR07;2018;12;11;0;55;0;-39.051550;82.566633;19.;13;3.86;18;;;;;;;;3903093S;08233998E;;0;;;
HAR07;2018;12;11;1;11;0;-39.035433;82.532333;19.;17;3.86;18;;;;;;;;3902126S;08231940E;;0;;;
HAR07;2018;12;11;1;26;0;-39.005783;82.510617;16.;14;3.86;19.5;;;;;;;;3900347S;08230637E;;0;;;
HAR07;2018;12;11;1;42;0;-39.013433;82.470183;21.;31;3.86;19.5;;;;;;;;3900806S;08228211E;;0;;;
HAR07;2018;12;11;1;57;0;-39.021150;82.418933;19.;43;3.86;21;;;;;;;;3901269S;08225136E;;0;;;
HAR07;2018;12;11;2;14;0;-39.026267;82.373500;1.4;59;3.86;20.5;;;;;;;;3901576S;08222410E;;0;;;
HAR07;2018;12;11;2;29;0;-39.036167;82.348500;37.;6;3.86;21;;;;;;;;3902170S;08220910E;;0;;;
HAR07;2018;12;11;2;44;0;-39.042583;82.291067;14.;7;3.86;20.5;;;;;;;;3902555S;08217464E;;0;;;
HAR07;2018;12;11;2;59;0;-39.078633;82.233683;13.;7;3.86;21.5;;;;;;;;3904718S;08214021E;;0;;;
HAR07;2018;12;11;3;14;0;-39.103283;82.189883;20.;6;3.87;22.5;;;;;;;;3906197S;08211393E;;0;;;
HAR07;2018;12;11;3;30;0;-39.125000;82.140883;11.;5;3.87;21.5;;;;;;;;3907500S;08208453E;;0;;;
HAR07;2018;12;11;3;45;0;-39.161100;82.076033;27.;8;3.87;21.5;;;;;;;;3909666S;08204562E;;0;;;
HAR07;2018;12;11;4;0;0;-39.201817;82.021600;20.;10;3.87;22;;;;;;;;3912109S;08201296E;;0;;;
HAR07;2018;12;11;4;15;0;-39.243283;81.963417;28.;8;3.87;21.5;;;;;;;;3914597S;08157805E;;0;;;
HAR07;2018;12;11;4;31;0;-39.251833;81.914117;0.4;10;3.87;21;;;;;;;;3915110S;08154847E;;0;;;
HAR07;2018;12;11;4;46;0;-39.294417;81.850083;12.;8;3.87;21.5;;;;;;;;3917665S;08151005E;;0;;;
HAR07;2018;12;11;5;1;0;-39.333783;81.780800;12.;10;3.87;21.5;;;;;;;;3920027S;08146848E;;0;;;
HAR07;2018;12;11;5;16;0;-39.369850;81.718200;22.;7;3.87;22;;;;;;;;3922191S;08143092E;;0;;;
HAR07;2018;12;11;5;31;0;-39.417467;81.638683;13.;10;3.87;21.5;;;;;;;;3925048S;08138321E;;0;;;
HAR07;2018;12;11;5;47;0;-39.424850;81.574317;18.;8;3.87;21.5;;;;;;;;3925491S;08134459E;;0;;;
HAR07;2018;12;11;6;2;0;-39.450583;81.506333;14.;9;3.87;22;;;;;;;;3927035S;08130380E;;0;;;
HAR07;2018;12;11;6;17;0;-39.452683;81.481150;17.;7;3.87;21.5;;;;;;;;3927161S;08128869E;;0;;;
HAR07;2018;12;11;6;32;0;-39.478567;81.401950;19.;9;3.88;20.5;;;;;;;;3928714S;08124117E;;0;;;
HAR07;2018;12;11;6;48;0;-39.476583;81.371117;30.;7;3.88;21;;;;;;;;3928595S;08122267E;;0;;;
HAR07;2018;12;11;7;3;0;-39.495433;81.323083;18.;7;3.88;21.5;;;;;;;;3929726S;08119385E;;0;;;
HAR07;2018;12;11;7;18;0;-39.521650;81.247683;21.;13;3.88;21.5;;;;;;;;3931299S;08114861E;;0;;;
HAR07;2018;12;11;7;33;0;-39.563983;81.165917;25.;6;3.88;21;;;;;;;;3933839S;08109955E;;0;;;
HAR07;2018;12;11;7;49;0;-39.609650;81.079017;16.;7;3.88;21;;;;;;;;3936579S;08104741E;;0;;;
HAR07;2018;12;11;8;4;0;-39.599300;81.071617;27.;9;3.88;21.5;;;;;;;;3935958S;08104297E;;0;;;
HAR07;2018;12;11;8;19;0;-39.608633;81.015833;17.;9;3.88;20.5;;;;;;;;3936518S;08100950E;;0;;;
HAR07;2018;12;11;8;34;0;-39.626467;80.974817;23.;10;3.88;21.5;;;;;;;;3937588S;08058489E;;0;;;
HAR07;2018;12;11;8;50;0;-39.623000;80.978017;14.;10;3.88;21.5;;;;;;;;3937380S;08058681E;;0;;;
HAR07;2018;12;11;9;5;0;-39.634050;80.991650;43.;11;3.88;20.5;;;;;;;;3938043S;08059499E;;0;;;
HAR07;2018;12;11;9;20;0;-39.638933;80.984867;11.;12;3.88;20.5;;;;;;;;3938336S;08059092E;;0;;;
HAR07;2018;12;11;9;35;0;-39.660300;80.922200;19.;17;3.88;20;;;;;;;;3939618S;08055332E;;0;;;
HAR07;2018;12;11;9;51;0;-39.693450;80.858833;0.4;9;3.88;20;;;;;;;;3941607S;08051530E;;0;;;
HAR07;2018;12;11;10;6;0;-39.736900;80.782917;19.;12;3.88;20;;;;;;;;3944214S;08046975E;;0;;;
HAR07;2018;12;11;10;21;0;-39.764983;80.701450;19.;13;3.88;20;;;;;;;;3945899S;08042087E;;0;;;
HAR07;2018;12;11;10;37;0;-39.808733;80.618833;35.;21;3.88;19.5;;;;;;;;3948524S;08037130E;;0;;;
HAR07;2018;12;11;10;52;0;-39.834933;80.540167;13.;37;3.88;19;;;;;;;;3950096S;08032410E;;0;;;
HAR07;2018;12;11;11;8;0;-39.821417;80.551933;21.;24;3.88;18.5;;;;;;;;3949285S;08033116E;;0;;;
HAR07;2018;12;11;11;23;0;-39.823667;80.500483;20.;11;3.88;18.5;;;;;;;;3949420S;08030029E;;0;;;
HAR07;2018;12;11;11;38;0;-39.833417;80.462783;21.;10;3.87;18;;;;;;;;3950005S;08027767E;;0;;;
HAR07;2018;12;11;11;54;0;-39.843733;80.392800;15.;9;3.87;18;;;;;;;;3950624S;08023568E;;0;;;
HAR07;2018;12;11;12;9;0;-39.851050;80.333333;1.2;20;3.87;18.5;;;;;;;;3951063S;08020000E;;0;;;
HAR07;2018;12;11;12;25;0;-39.879833;80.259817;21.;49;3.87;18;;;;;;;;3952790S;08015589E;;0;;;
HAR07;2018;12;11;12;40;0;-39.888450;80.237817;41.;18;3.87;18;;;;;;;;3953307S;08014269E;;0;;;
HAR07;2018;12;11;12;56;0;-39.915683;80.165033;12.;19;3.87;18.5;;;;;;;;3954941S;08009902E;;0;;;
HAR07;2018;12;11;13;11;0;-39.950967;80.104567;11.;24;3.87;16.5;;;;;;;;3957058S;08006274E;;0;;;
HAR07;2018;12;11;13;27;0;-39.952200;80.057417;1.5;9;3.87;15.5;;;;;;;;3957132S;08003445E;;0;;;
HAR07;2018;12;11;13;42;0;-39.942800;79.984650;15.;18;3.87;15;;;;;;;;3956568S;07959079E;;0;;;
HAR07;2018;12;11;13;58;0;-39.930333;79.921700;26.;28;3.86;15;;;;;;;;3955820S;07955302E;;0;;;
HAR07;2018;12;11;14;14;0;-39.875883;79.827117;16.;65;3.86;15;;;;;;;;3952553S;07949627E;;0;;;
HAR07;2018;12;11;14;29;0;-39.837967;79.728333;21.;9;3.86;15;;;;;;;;3950278S;07943700E;;0;;;
HAR07;2018;12;11;14;44;0;-39.804617;79.650400;33.;19;3.86;15.5;;;;;;;;3948277S;07939024E;;0;;;
HAR07;2018;12;11;15;0;0;-39.749033;79.579600;23.;22;3.86;15.5;;;;;;;;3944942S;07934776E;;0;;;
HAR07;2018;12;11;15;15;0;-39.707433;79.513750;29.;25;3.86;16;;;;;;;;3942446S;07930825E;;0;;;
HAR07;2018;12;11;15;31;0;-39.696483;79.479233;1.9;20;3.85;16.5;;;;;;;;3941789S;07928754E;;0;;;
HAR07;2018;12;11;15;46;0;-39.692983;79.481250;0.1;12;3.85;17;;;;;;;;3941579S;07928875E;;0;;;
HAR07;2018;12;11;16;2;0;-39.689550;79.481767;0.1;24;3.85;17.5;;;;;;;;3941373S;07928906E;;0;;;
HAR07;2018;12;11;16;17;0;-39.687350;79.482083;0.6;33;3.85;18.5;;;;;;;;3941241S;07928925E;;0;;;
HAR07;2018;12;11;16;33;0;-39.684983;79.482650;1.1;37;3.85;19;;;;;;;;3941099S;07928959E;;0;;;
HAR07;2018;12;11;16;48;0;-39.681400;79.482750;0.9;19;3.85;19.5;;;;;;;;3940884S;07928965E;;0;;;
HAR07;2018;12;11;17;4;0;-39.679617;79.482333;0.2;9;3.85;21;;;;;;;;3940777S;07928940E;;0;;;
HAR07;2018;12;11;17;19;0;-39.678183;79.483083;1.5;22;3.85;20;;;;;;;;3940691S;07928985E;;0;;;
HAR07;2018;12;11;17;34;0;-39.676733;79.483367;1.0;11;3.85;20;;;;;;;;3940604S;07929002E;;0;;;
HAR07;2018;12;11;17;50;0;-39.675917;79.483283;0.6;14;3.85;20.5;;;;;;;;3940555S;07928997E;;0;;;
HAR07;2018;12;11;18;5;0;-39.674967;79.483383;2.1;18;3.85;19.5;;;;;;;;3940498S;07929003E;;0;;;
HAR07;2018;12;11;18;21;0;-39.673517;79.482233;1.2;30;3.85;19.5;;;;;;;;3940411S;07928934E;;0;;;
HAR07;2018;12;11;18;36;0;-39.673033;79.483950;1.4;25;3.85;20.5;;;;;;;;3940382S;07929037E;;0;;;
HAR07;2018;12;11;18;52;0;-39.672017;79.484250;0.5;25;3.85;20.5;;;;;;;;3940321S;07929055E;;0;;;
HAR07;2018;12;11;19;7;0;-39.671250;79.484933;1.2;25;3.85;21;;;;;;;;3940275S;07929096E;;0;;;
HAR07;2018;12;11;19;23;0;-39.669317;79.485917;2.8;22;3.85;17.5;;;;;;;;3940159S;07929155E;;0;;;
HAR07;2018;12;11;19;38;0;-39.666133;79.484033;0.8;13;3.85;16.5;;;;;;;;3939968S;07929042E;;0;;;
HAR07;2018;12;11;19;53;0;-39.662800;79.483050;1.8;15;3.85;16;;;;;;;;3939768S;07928983E;;0;;;
HAR07;2018;12;11;20;9;0;-39.659567;79.481533;0.8;20;3.85;16.5;;;;;;;;3939574S;07928892E;;0;;;
HAR07;2018;12;11;20;25;0;-39.656917;79.479967;1.0;41;3.84;16.5;;;;;;;;3939415S;07928798E;;0;;;
HAR07;2018;12;11;20;40;0;-39.654167;79.478683;1.6;6;3.84;16;;;;;;;;3939250S;07928721E;;0;;;
HAR07;2018;12;11;20;55;0;-39.651600;79.477367;2.5;12;3.84;15.5;;;;;;;;3939096S;07928642E;;0;;;
HAR07;2018;12;11;21;10;0;-39.648900;79.476067;0.6;15;3.84;15.5;;;;;;;;3938934S;07928564E;;0;;;
HAR07;2018;12;11;21;26;0;-39.646200;79.475450;1.1;11;3.84;14.5;;;;;;;;3938772S;07928527E;;0;;;
HAR07;2018;12;11;21;41;0;-39.643283;79.474383;1.5;12;3.84;14.5;;;;;;;;3938597S;07928463E;;0;;;
HAR07;2018;12;11;21;56;0;-39.640950;79.473617;2.2;12;3.84;14;;;;;;;;3938457S;07928417E;;0;;;
HAR07;2018;12;11;22;12;0;-39.603017;79.454017;23.;20;3.84;12.5;;;;;;;;3936181S;07927241E;;0;;;
HAR07;2018;12;11;22;27;0;-39.534717;79.413950;28.;12;3.84;12.5;;;;;;;;3932083S;07924837E;;0;;;
HAR07;2018;12;11;22;42;0;-39.437700;79.341067;38.;10;3.84;12.5;;;;;;;;3926262S;07920464E;;0;;;
HAR07;2018;12;11;22;58;0;-39.371983;79.262233;36.;27;3.84;12.5;;;;;;;;3922319S;07915734E;;0;;;
HAR07;2018;12;11;23;13;0;-39.304633;79.179200;28.;18;3.84;13;;;;;;;;3918278S;07910752E;;0;;;
HAR07;2018;12;11;23;29;0;-39.203900;79.109267;41.;36;3.83;12;;;;;;;;3912234S;07906556E;;0;;;
HAR07;2018;12;11;23;46;0;-39.095367;79.047267;27.;104;3.83;13;;;;;;;;3905722S;07902836E;;0;;;
HAR07;2018;12;12;0;1;0;-39.051133;79.017533;30.;29;3.83;13;;;;;;;;3903068S;07901052E;;0;;;
HAR07;2018;12;12;0;17;0;-38.980133;79.030117;38.;67;3.83;14;;;;;;;;3858808S;07901807E;;0;;;
HAR07;2018;12;12;0;33;0;-38.853017;79.012867;35.;41;3.83;14.5;;;;;;;;3851181S;07900772E;;0;;;
HAR07;2018;12;12;0;50;0;-38.714117;78.968933;27.;68;3.82;15;;;;;;;;3842847S;07858136E;;0;;;
HAR07;2018;12;12;1;5;0;-38.574317;78.915300;31.;28;3.82;15;;;;;;;;3834459S;07854918E;;0;;;
HAR07;2018;12;12;1;21;0;-38.443900;78.830567;29.;22;3.82;15.5;;;;;;;;3826634S;07849834E;;0;;;
HAR07;2018;12;12;1;36;0;-38.343750;78.737617;42.;18;3.82;16;;;;;;;;3820625S;07844257E;;0;;;
HAR07;2018;12;12;1;51;0;-38.248083;78.640800;34.;16;3.82;16;;;;;;;;3814885S;07838448E;;0;;;
HAR07;2018;12;12;2;7;0;-38.194983;78.575167;0.3;13;3.82;16.5;;;;;;;;3811699S;07834510E;;0;;;
HAR07;2018;12;12;2;22;0;-38.100317;78.518533;4.6;11;3.82;16;;;;;;;;3806019S;07831112E;;0;;;
HAR07;2018;12;12;2;37;0;-38.070867;78.455633;47.;11;3.82;16.5;;;;;;;;3804252S;07827338E;;0;;;
HAR07;2018;12;12;2;53;0;-37.943550;78.371733;30.;25;3.82;16.5;;;;;;;;3756613S;07822304E;;0;;;
HAR07;2018;12;12;3;8;0;-37.864583;78.277733;36.;24;3.82;16.5;;;;;;;;3751875S;07816664E;;0;;;
HAR07;2018;12;12;3;23;0;-37.810150;78.177133;19.;8;3.82;17;;;;;;;;3748609S;07810628E;;0;;;
HAR07;2018;12;12;3;39;0;-37.764600;78.132667;18.;23;3.82;17;;;;;;;;3745876S;07807960E;;0;;;
HAR07;2018;12;12;3;54;0;-37.718183;78.019750;20.;12;3.82;17.5;;;;;;;;3743091S;07801185E;;0;;;
HAR07;2018;12;12;4;9;0;-37.708750;77.937117;36.;11;3.82;18.5;;;;;;;;3742525S;07756227E;;0;;;
HAR07;2018;12;12;4;25;0;-37.703033;77.854350;22.;15;3.82;19;;;;;;;;3742182S;07751261E;;0;;;
HAR07;2018;12;12;4;40;0;-37.709017;77.793367;28.;31;3.82;19.5;;;;;;;;3742541S;07747602E;;0;;;
HAR07;2018;12;12;4;56;0;-37.721867;77.761450;0.9;14;3.82;20;;;;;;;;3743312S;07745687E;;0;;;
