Logger ID;Year;Month;Day;Hour;Minute;Second;Latitude;Longitude;Speed;Searching time;Voltage;Temperature;Altitude;Div up;Div down;No GPS - timeout;No GPS - diving;In range;Diving duration;Raw latitude;Raw Longitude;Decision voltage;Milisecond;Acc_X;Acc_Y;Acc_Z
HAR03;2018;11;30;12;56;0;-37.854650;77.524567;1.6;77;3.91;21.5;;;;;;;;3751279S;07731474E;;0;;;
HAR03;2018;11;30;12;57;0;-37.854683;77.524883;0.6;16;3.91;21.5;;;;;;;;3751281S;07731493E;;0;;;
HAR03;2018;11;30;12;57;0;-37.854700;77.524000;1.5;5;3.91;21.5;;;;;;;;3751282S;07731440E;;0;;;
HAR03;2018;11;30;12;57;0;-37.854550;77.524533;2.7;10;3.91;21.5;;;;;;;;3751273S;07731472E;;0;;;
HAR03;2018;11;30;13;12;0;-37.921117;77.465017;3.5;21;3.9;17.5;;;;;;;;3755267S;07727901E;;0;;;
HAR03;2018;11;30;13;28;0;-37.954033;77.426300;39.;9;3.9;16.5;;;;;;;;3757242S;07725578E;;0;;;
HAR03;2018;11;30;13;43;0;-38.046983;77.314933;39.;14;3.9;16;;;;;;;;3802819S;07718896E;;0;;;
HAR03;2018;11;30;13;58;0;-38.151483;77.199817;51.;25;3.9;16.5;;;;;;;;3809089S;07711989E;;0;;;
HAR03;2018;11;30;14;15;0;-38.258833;77.067783;18.;115;3.9;16.5;;;;;;;;3815530S;07704067E;;0;;;
HAR03;2018;11;30;14;31;0;-38.339067;76.952350;32.;28;3.89;16;;;;;;;;3820344S;07657141E;;0;;;
HAR03;2018;11;30;14;46;0;-38.416683;76.858850;18.;21;3.89;16;;;;;;;;3825001S;07651531E;;0;;;
HAR03;2018;11;30;15;2;0;-38.485633;76.769167;26.;17;3.89;16.5;;;;;;;;3829138S;07646150E;;0;;;
HAR03;2018;11;30;15;18;0;-38.538867;76.700850;0.5;36;3.89;16.5;;;;;;;;3832332S;07642051E;;0;;;
HAR03;2018;11;30;15;33;0;-38.545833;76.690483;0.6;11;3.88;15.5;;;;;;;;3832750S;07641429E;;0;;;
HAR03;2018;11;30;15;48;0;-38.546217;76.693633;0.9;13;3.88;16;;;;;;;;3832773S;07641618E;;0;;;
HAR03;2018;11;30;16;3;0;-38.546733;76.697450;0.6;11;3.88;16;;;;;;;;3832804S;07641847E;;0;;;
HAR03;2018;11;30;16;19;0;-38.547483;76.700667;1.1;10;3.88;16;;;;;;;;3832849S;07642040E;;0;;;
HAR03;2018;11;30;16;34;0;-38.548317;76.703883;0.4;10;3.88;15.5;;;;;;;;3832899S;07642233E;;0;;;
HAR03;2018;11;30;16;49;0;-38.548550;76.707867;11.;17;3.88;15.5;;;;;;;;3832913S;07642472E;;0;;;
HAR03;2018;11;30;17;5;0;-38.550233;76.710650;3.3;24;3.88;15.5;;;;;;;;3833014S;07642639E;;0;;;
HAR03;2018;11;30;17;20;0;-38.551833;76.713900;0.3;20;3.88;15.5;;;;;;;;3833110S;07642834E;;0;;;
HAR03;2018;11;30;17;36;0;-38.553100;76.717833;0.8;38;3.88;15.5;;;;;;;;3833186S;07643070E;;0;;;
HAR03;2018;11;30;17;51;0;-38.568117;76.698683;1.3;19;3.88;15.5;;;;;;;;3834087S;07641921E;;0;;;
HAR03;2018;11;30;18;7;0;-38.570133;76.702050;1.2;12;3.88;16;;;;;;;;3834208S;07642123E;;0;;;
HAR03;2018;11;30;18;22;0;-38.572150;76.705067;2.5;7;3.88;16;;;;;;;;3834329S;07642304E;;0;;;
HAR03;2018;11;30;18;37;0;-38.575167;76.708350;0.9;19;3.88;16;;;;;;;;3834510S;07642501E;;0;;;
HAR03;2018;11;30;18;53;0;-38.577483;76.712450;0.1;40;3.88;16.5;;;;;;;;3834649S;07642747E;;0;;;
HAR03;2018;11;30;19;8;0;-38.579583;76.716533;1.6;5;3.87;16;;;;;;;;3834775S;07642992E;;0;;;
HAR03;2018;11;30;19;23;0;-38.581817;76.721033;1.2;5;3.87;16;;;;;;;;3834909S;07643262E;;0;;;
HAR03;2018;11;30;19;39;0;-38.584067;76.725317;0.9;5;3.87;16.5;;;;;;;;3835044S;07643519E;;0;;;
HAR03;2018;11;30;19;54;0;-38.585983;76.729100;1.9;6;3.87;16;;;;;;;;3835159S;07643746E;;0;;;
HAR03;2018;11;30;20;9;0;-38.590900;76.728450;1.6;8;3.87;15.5;;;;;;;;3835454S;07643707E;;0;;;
HAR03;2018;11;30;20;24;0;-38.592433;76.732617;1.4;6;3.87;16;;;;;;;;3835546S;07643957E;;0;;;
HAR03;2018;11;30;20;40;0;-38.594567;76.736467;1.8;14;3.87;16;;;;;;;;3835674S;07644188E;;0;;;
HAR03;2018;11;30;20;55;0;-38.596583;76.741567;1.4;49;3.87;15.5;;;;;;;;3835795S;07644494E;;0;;;
HAR03;2018;11;30;21;11;0;-38.600767;76.748733;3.4;4;3.87;15;;;;;;;;3836046S;07644924E;;0;;;
HAR03;2018;11;30;21;26;0;-38.600100;76.750883;1.2;8;3.87;15.5;;;;;;;;3836006S;07645053E;;0;;;
HAR03;2018;11;30;21;41;0;-38.601783;76.755017;1.1;10;3.87;15;;;;;;;;3836107S;07645301E;;0;;;
HAR03;2018;11;30;21;56;0;-38.603083;76.760667;1.2;5;3.87;15.5;;;;;;;;3836185S;07645640E;;0;;;
HAR03;2018;11;30;22;11;0;-38.605183;76.765550;0.6;5;3.86;15;;;;;;;;3836311S;07645933E;;0;;;
HAR03;2018;11;30;22;27;0;-38.621000;76.766117;17.;9;3.86;15.5;;;;;;;;3837260S;07645967E;;0;;;
HAR03;2018;11;30;22;42;0;-38.657717;76.705350;22.;12;3.86;16;;;;;;;;3839463S;07642321E;;0;;;
HAR03;2018;11;30;22;57;0;-38.712367;76.581183;45.;14;3.86;16;;;;;;;;3842742S;07634871E;;0;;;
HAR03;2018;11;30;23;13;0;-38.803217;76.457350;23.;10;3.86;15.5;;;;;;;;3848193S;07627441E;;0;;;
HAR03;2018;11;30;23;28;0;-38.892233;76.343050;25.;8;3.86;16;;;;;;;;3853534S;07620583E;;0;;;
HAR03;2018;11;30;23;43;0;-38.977367;76.252833;24.;7;3.86;15.5;;;;;;;;3858642S;07615170E;;0;;;
HAR03;2018;11;30;23;58;0;-39.061083;76.160500;19.;8;3.86;16;;;;;;;;3903665S;07609630E;;0;;;
HAR03;2018;12;1;0;14;0;-39.144783;76.077583;32.;14;3.86;15.5;;;;;;;;3908687S;07604655E;;0;;;
HAR03;2018;12;1;0;29;0;-39.226933;75.997617;30.;20;3.86;15.5;;;;;;;;3913616S;07559857E;;0;;;
HAR03;2018;12;1;0;47;28;;;;;;;;;;1;;;;;;;0;;;
HAR03;2018;12;1;1;4;0;-39.408550;75.831900;22.;136;3.85;16.5;;;;;;;;3924513S;07549914E;;0;;;
HAR03;2018;12;1;1;20;0;-39.480600;75.754367;19.;20;3.85;16.5;;;;;;;;3928836S;07545262E;;0;;;
HAR03;2018;12;1;1;35;0;-39.544433;75.675100;11.;14;3.85;17;;;;;;;;3932666S;07540506E;;0;;;
HAR03;2018;12;1;1;51;0;-39.634517;75.597533;20.;22;3.87;18;;;;;;;;3938071S;07535852E;;0;;;
HAR03;2018;12;1;2;7;0;-39.686083;75.566467;1.3;47;3.86;15;;;;;;;;3941165S;07533988E;;0;;;
HAR03;2018;12;1;2;22;0;-39.750317;75.534500;15.;5;3.86;15.5;;;;;;;;3945019S;07532070E;;0;;;
HAR03;2018;12;1;2;37;0;-39.837300;75.497467;35.;5;3.87;15;;;;;;;;3950238S;07529848E;;0;;;
HAR03;2018;12;1;2;52;0;-39.916983;75.459967;16.;6;3.87;15;;;;;;;;3955019S;07527598E;;0;;;
HAR03;2018;12;1;3;7;0;-39.997850;75.419283;22.;16;3.88;15;;;;;;;;3959871S;07525157E;;0;;;
HAR03;2018;12;1;3;23;0;-40.082967;75.404433;22.;20;3.88;16;;;;;;;;4004978S;07524266E;;0;;;
HAR03;2018;12;1;3;39;0;-40.163150;75.382067;17.;41;3.88;15.5;;;;;;;;4009789S;07522924E;;0;;;
HAR03;2018;12;1;3;55;0;-40.219783;75.429217;44.;78;3.88;15.5;;;;;;;;4013187S;07525753E;;0;;;
HAR03;2018;12;1;4;11;0;-40.234533;75.469517;32.;33;3.89;16;;;;;;;;4014072S;07528171E;;0;;;
HAR03;2018;12;1;4;26;0;-40.234133;75.492250;0.0;33;3.89;16.5;;;;;;;;4014048S;07529535E;;0;;;
HAR03;2018;12;1;4;42;0;-40.282683;75.481267;27.;14;3.89;15;;;;;;;;4016961S;07528876E;;0;;;
HAR03;2018;12;1;4;58;0;-40.215433;75.565250;32.;77;3.89;15.5;;;;;;;;4012926S;07533915E;;0;;;
HAR03;2018;12;1;5;14;0;-40.120300;75.675500;22.;28;3.9;14.5;;;;;;;;4007218S;07540530E;;0;;;
HAR03;2018;12;1;5;29;0;-40.090617;75.736383;27.;22;3.9;15;;;;;;;;4005437S;07544183E;;0;;;
HAR03;2018;12;1;5;45;0;-40.097783;75.770117;18.;25;3.91;17;;;;;;;;4005867S;07546207E;;0;;;
HAR03;2018;12;1;6;2;0;-40.010717;75.883150;34.;118;3.92;17;;;;;;;;4000643S;07552989E;;0;;;
HAR03;2018;12;1;6;17;0;-39.931767;75.963083;25.;31;3.92;15;;;;;;;;3955906S;07557785E;;0;;;
HAR03;2018;12;1;6;33;0;-39.846717;76.071083;15.;42;3.92;15;;;;;;;;3950803S;07604265E;;0;;;
HAR03;2018;12;1;6;49;0;-39.760167;76.159617;1.0;42;3.92;15;;;;;;;;3945610S;07609577E;;0;;;
HAR03;2018;12;1;7;5;0;-39.744967;76.176950;34.;36;3.93;15.5;;;;;;;;3944698S;07610617E;;0;;;
HAR03;2018;12;1;7;22;0;-39.643450;76.281633;19.;114;3.94;15.5;;;;;;;;3938607S;07616898E;;0;;;
HAR03;2018;12;1;7;37;0;-39.561000;76.368400;38.;14;3.93;15;;;;;;;;3933660S;07622104E;;0;;;
HAR03;2018;12;1;7;52;0;-39.467083;76.459150;30.;17;3.94;15;;;;;;;;3928025S;07627549E;;0;;;
HAR03;2018;12;1;8;8;0;-39.391483;76.533200;30.;37;3.95;15;;;;;;;;3923489S;07631992E;;0;;;
HAR03;2018;12;1;8;23;0;-39.318733;76.605417;32.;19;3.95;15;;;;;;;;3919124S;07636325E;;0;;;
HAR03;2018;12;1;8;41;0;-39.219717;76.723933;14.;123;3.95;15.5;;;;;;;;3913183S;07643436E;;0;;;
HAR03;2018;12;1;8;56;0;-39.165767;76.799967;11.;9;3.95;14.5;;;;;;;;3909946S;07647998E;;0;;;
HAR03;2018;12;1;9;11;0;-39.164800;76.802800;2.4;7;3.95;15.5;;;;;;;;3909888S;07648168E;;0;;;
HAR03;2018;12;1;9;26;0;-39.089167;76.879500;21.;6;3.95;15;;;;;;;;3905350S;07652770E;;0;;;
HAR03;2018;12;1;9;42;0;-39.006567;76.970950;38.;18;3.95;15;;;;;;;;3900394S;07658257E;;0;;;
HAR03;2018;12;1;9;57;0;-38.918867;77.052100;19.;9;3.96;15;;;;;;;;3855132S;07703126E;;0;;;
HAR03;2018;12;1;10;12;0;-38.844383;77.134317;31.;15;3.97;15.5;;;;;;;;3850663S;07708059E;;0;;;
HAR03;2018;12;1;10;28;0;-38.769183;77.188633;33.;23;3.97;15.5;;;;;;;;3846151S;07711318E;;0;;;
HAR03;2018;12;1;10;44;0;-38.689400;77.288167;40.;70;3.98;16;;;;;;;;3841364S;07717290E;;0;;;
HAR03;2018;12;1;10;59;0;-38.599300;77.364317;35.;16;3.98;16;;;;;;;;3835958S;07721859E;;0;;;
HAR03;2018;12;1;11;15;0;-38.517233;77.417333;36.;40;3.98;15.5;;;;;;;;3831034S;07725040E;;0;;;
HAR03;2018;12;1;11;30;0;-38.434467;77.451167;23.;14;3.98;15.5;;;;;;;;3826068S;07727070E;;0;;;
HAR03;2018;12;1;11;46;0;-38.346800;77.476417;27.;36;3.98;16;;;;;;;;3820808S;07728585E;;0;;;
HAR03;2018;12;1;12;2;0;-38.258500;77.511617;21.;36;3.98;15.5;;;;;;;;3815510S;07730697E;;0;;;
HAR03;2018;12;1;12;18;0;-38.154567;77.546833;25.;83;3.98;16;;;;;;;;3809274S;07732810E;;0;;;
HAR03;2018;12;1;12;36;0;-38.088367;77.566400;33.;159;3.97;15.5;;;;;;;;3805302S;07733984E;;0;;;
HAR03;2018;12;1;12;51;0;-37.992200;77.583083;30.;9;3.96;16;;;;;;;;3759532S;07734985E;;0;;;
HAR03;2018;12;1;13;6;0;-37.906550;77.576417;19.;7;3.96;16.5;;;;;;;;3754393S;07734585E;;0;;;
HAR03;2018;12;1;13;22;0;-37.871950;77.536750;18.;9;3.96;16;;;;;;;;3752317S;07732205E;;0;;;
HAR03;2018;12;1;13;37;0;-37.854667;77.524000;0.0;39;3.96;16;;;;;;;;3751280S;07731440E;;0;;;
HAR03;2018;12;1;13;53;0;-37.854583;77.524133;1.1;6;3.96;16.5;;;;;;;;3751275S;07731448E;;0;;;
HAR03;2018;12;1;14;8;0;-37.854667;77.524133;6.1;4;3.96;14.5;;;;;;;;3751280S;07731448E;;0;;;
HAR03;2018;12;1;14;23;0;-37.854550;77.524167;0.9;7;3.96;17;;;;;;;;3751273S;07731450E;;0;;;
HAR03;2018;12;1;14;38;0;-37.854483;77.524100;2.8;7;3.95;16.5;;;;;;;;3751269S;07731446E;;0;;;
HAR03;2018;12;1;14;53;0;-37.854700;77.524133;1.4;11;3.95;16.5;;;;;;;;3751282S;07731448E;;0;;;
HAR03;2018;12;1;15;9;0;-37.854700;77.524017;0.3;11;3.95;15.5;;;;;;;;3751282S;07731441E;;0;;;
HAR03;2018;12;1;15;24;0;-37.854650;77.524233;1.7;8;3.95;15;;;;;;;;3751279S;07731454E;;0;;;
HAR03;2018;12;1;15;40;0;-37.854583;77.524100;0.2;27;3.95;15;;;;;;;;3751275S;07731446E;;0;;;
HAR03;2018;12;1;15;55;0;-37.854517;77.523917;0.6;5;3.95;15;;;;;;;;3751271S;07731435E;;0;;;
HAR03;2018;12;1;16;10;0;-37.854583;77.524133;0.6;8;3.95;16;;;;;;;;3751275S;07731448E;;0;;;
HAR03;2018;12;1;16;25;0;-37.854700;77.524017;0.5;14;3.95;16;;;;;;;;3751282S;07731441E;;0;;;
HAR03;2018;12;1;16;41;0;-37.854617;77.524000;0.2;21;3.94;16.5;;;;;;;;3751277S;07731440E;;0;;;
HAR03;2018;12;1;16;56;0;-37.854600;77.524067;0.5;38;3.94;16;;;;;;;;3751276S;07731444E;;0;;;
HAR03;2018;12;1;17;12;0;-37.854617;77.524217;0.2;18;3.93;15.5;;;;;;;;3751277S;07731453E;;0;;;
HAR03;2018;12;1;17;27;0;-37.855683;77.523267;0.2;15;3.93;16;;;;;;;;3751341S;07731396E;;0;;;
HAR03;2018;12;1;17;42;0;-37.855217;77.523483;1.2;7;3.93;16;;;;;;;;3751313S;07731409E;;0;;;
HAR03;2018;12;1;17;58;0;-37.854600;77.524183;0.5;32;3.92;16;;;;;;;;3751276S;07731451E;;0;;;
HAR03;2018;12;1;18;13;0;-37.854417;77.525133;1.6;4;3.92;15.5;;;;;;;;3751265S;07731508E;;0;;;
HAR03;2018;12;1;18;28;0;-37.855717;77.520217;1.2;6;3.92;15.5;;;;;;;;3751343S;07731213E;;0;;;
HAR03;2018;12;1;18;44;0;-37.854600;77.524050;0.6;10;3.92;16;;;;;;;;3751276S;07731443E;;0;;;
HAR03;2018;12;1;18;59;0;-37.854883;77.524017;0.9;8;3.92;15;;;;;;;;3751293S;07731441E;;0;;;
HAR03;2018;12;1;19;14;0;-37.854367;77.523833;2.0;10;3.92;15;;;;;;;;3751262S;07731430E;;0;;;
HAR03;2018;12;1;19;29;0;-37.854333;77.523950;0.1;12;3.91;14.5;;;;;;;;3751260S;07731437E;;0;;;
HAR03;2018;12;1;19;45;0;-37.854433;77.523950;1.1;8;3.91;14.5;;;;;;;;3751266S;07731437E;;0;;;
HAR03;2018;12;1;20;0;0;-37.854750;77.523750;1.4;8;3.91;14;;;;;;;;3751285S;07731425E;;0;;;
HAR03;2018;12;1;20;15;0;-37.854867;77.523667;1.2;8;3.91;14.5;;;;;;;;3751292S;07731420E;;0;;;
HAR03;2018;12;1;20;30;0;-37.855183;77.523750;1.2;12;3.91;14.5;;;;;;;;3751311S;07731425E;;0;;;
HAR03;2018;12;1;20;46;0;-37.855000;77.523750;1.0;38;3.91;13.5;;;;;;;;3751300S;07731425E;;0;;;
HAR03;2018;12;1;21;1;0;-37.854517;77.524083;0.6;8;3.91;12.5;;;;;;;;3751271S;07731445E;;0;;;
HAR03;2018;12;1;21;17;0;-37.854617;77.524017;0.4;19;3.91;13.5;;;;;;;;3751277S;07731441E;;0;;;
HAR03;2018;12;1;21;33;0;-37.854717;77.524167;1.2;41;3.91;13;;;;;;;;3751283S;07731450E;;0;;;
HAR03;2018;12;1;21;48;0;-37.854617;77.524017;1.3;13;3.91;13;;;;;;;;3751277S;07731441E;;0;;;
HAR03;2018;12;1;22;3;0;-37.854550;77.523883;0.0;10;3.91;14;;;;;;;;3751273S;07731433E;;0;;;
HAR03;2018;12;1;22;18;0;-37.855350;77.524267;0.8;11;3.91;13.5;;;;;;;;3751321S;07731456E;;0;;;
HAR03;2018;12;1;22;34;0;-37.855450;77.524017;1.0;8;3.9;12;;;;;;;;3751327S;07731441E;;0;;;
HAR03;2018;12;1;22;49;0;-37.855583;77.524000;0.6;19;3.9;11.5;;;;;;;;3751335S;07731440E;;0;;;
HAR03;2018;12;1;23;4;0;-37.855867;77.523600;0.8;9;3.9;11;;;;;;;;3751352S;07731416E;;0;;;
HAR03;2018;12;1;23;20;0;-37.855217;77.524433;2.5;13;3.9;11;;;;;;;;3751313S;07731466E;;0;;;
HAR03;2018;12;1;23;35;0;-37.855300;77.525583;1.4;10;3.9;11.5;;;;;;;;3751318S;07731535E;;0;;;
HAR03;2018;12;1;23;50;0;-37.854933;77.524250;0.7;19;3.9;12;;;;;;;;3751296S;07731455E;;0;;;
HAR03;2018;12;2;0;6;0;-37.853533;77.524217;1.5;17;3.9;13;;;;;;;;3751212S;07731453E;;0;;;
HAR03;2018;12;2;0;22;0;-37.854300;77.524317;0.8;51;3.9;12.5;;;;;;;;3751258S;07731459E;;0;;;
HAR03;2018;12;2;0;37;0;-37.842833;77.508083;20.;6;3.89;11;;;;;;;;3750570S;07730485E;;0;;;
HAR03;2018;12;2;0;52;0;-37.854550;77.524483;2.1;8;3.89;10.5;;;;;;;;3751273S;07731469E;;0;;;
HAR03;2018;12;2;1;7;0;-37.854533;77.524183;0.4;16;3.89;11.5;;;;;;;;3751272S;07731451E;;0;;;
HAR03;2018;12;2;1;23;0;-37.855050;77.523233;1.7;7;3.89;14;;;;;;;;3751303S;07731394E;;0;;;
HAR03;2018;12;2;1;38;0;-37.855117;77.523267;1.1;8;3.9;14.5;;;;;;;;3751307S;07731396E;;0;;;
HAR03;2018;12;2;1;53;0;-37.854967;77.523983;0.3;6;3.9;14.5;;;;;;;;3751298S;07731439E;;0;;;
HAR03;2018;12;2;2;8;0;-37.854450;77.524833;4.1;9;3.9;15.5;;;;;;;;3751267S;07731490E;;0;;;
HAR03;2018;12;2;2;24;0;-37.855067;77.523967;0.6;10;3.9;15.5;;;;;;;;3751304S;07731438E;;0;;;
HAR03;2018;12;2;2;39;0;-37.854883;77.524333;0.8;8;3.9;15;;;;;;;;3751293S;07731460E;;0;;;
HAR03;2018;12;2;2;54;0;-37.854650;77.524417;0.8;12;3.9;17;;;;;;;;3751279S;07731465E;;0;;;
HAR03;2018;12;2;3;0;7;;;;;;;;;;;;1;;;;3.89;0;;;
HAR03;2018;12;2;3;4;27;;;;;;;;;;;;1;;;;3.9;0;;;
HAR03;2018;12;2;3;4;28;;;;;;;;;;;;1;;;;3.9;0;;;
HAR03;2018;12;2;3;9;23;;;;;;;;;;;;1;;;;3.9;0;;;
HAR03;2018;12;2;3;9;24;;;;;;;;;;;;1;;;;3.9;0;;;
HAR03;2018;12;2;3;9;31;;;;;;;;;;;;1;;;;3.9;0;;;
HAR03;2018;12;2;3;9;32;;;;;;;;;;;;1;;;;3.9;0;;;
HAR03;2018;12;2;3;9;33;;;;;;;;;;;;1;;;;3.9;0;;;
HAR03;2018;12;2;3;10;0;-37.856650;77.523917;0.4;41;3.9;16;;;;;;;;3751399S;07731435E;;0;;;
HAR03;2018;12;2;3;15;19;;;;;;;;;;;;1;;;;3.9;0;;;
HAR03;2018;12;2;3;15;20;;;;;;;;;;;;1;;;;3.9;0;;;
HAR03;2018;12;2;3;20;14;;;;;;;;;;;;1;;;;3.9;0;;;
HAR03;2018;12;2;3;20;15;;;;;;;;;;;;1;;;;3.9;0;;;
HAR03;2018;12;2;3;25;0;-37.856150;77.523917;0.1;17;3.9;19;;;;;;;;3751369S;07731435E;;0;;;
HAR03;2018;12;2;3;25;10;;;;;;;;;;;;1;;;;3.9;0;;;
HAR03;2018;12;2;3;25;11;;;;;;;;;;;;1;;;;3.9;0;;;
HAR03;2018;12;2;3;25;18;;;;;;;;;;;;1;;;;3.9;0;;;
HAR03;2018;12;2;3;25;19;;;;;;;;;;;;1;;;;3.9;0;;;
HAR03;2018;12;2;3;25;20;;;;;;;;;;;;1;;;;3.9;0;;;
HAR03;2018;12;2;3;30;42;;;;;;;;;;;;1;;;;3.9;0;;;
HAR03;2018;12;2;3;30;43;;;;;;;;;;;;1;;;;3.9;0;;;
HAR03;2018;12;2;3;35;37;;;;;;;;;;;;1;;;;3.9;0;;;
HAR03;2018;12;2;3;35;38;;;;;;;;;;;;1;;;;3.9;0;;;
HAR03;2018;12;2;3;40;0;-37.855467;77.524133;0.4;7;3.9;21;;;;;;;;3751328S;07731448E;;0;;;
HAR03;2018;12;2;3;40;33;;;;;;;;;;;;1;;;;3.91;0;;;
HAR03;2018;12;2;3;40;34;;;;;;;;;;;;1;;;;3.9;0;;;
HAR03;2018;12;2;3;40;41;;;;;;;;;;;;1;;;;3.9;0;;;
HAR03;2018;12;2;3;40;42;;;;;;;;;;;;1;;;;3.9;0;;;
HAR03;2018;12;2;3;40;43;;;;;;;;;;;;1;;;;3.9;0;;;
HAR03;2018;12;2;3;45;57;;;;;;;;;;;;1;;;;3.9;0;;;
HAR03;2018;12;2;3;45;58;;;;;;;;;;;;1;;;;3.9;0;;;
HAR03;2018;12;2;3;50;51;;;;;;;;;;;;1;;;;3.91;0;;;
HAR03;2018;12;2;3;50;52;;;;;;;;;;;;1;;;;3.91;0;;;
HAR03;2018;12;2;3;55;47;;;;;;;;;;;;1;;;;3.91;0;;;
HAR03;2018;12;2;3;55;48;;;;;;;;;;;;1;;;;3.91;0;;;
HAR03;2018;12;2;3;55;55;;;;;;;;;;;;1;;;;3.91;0;;;
HAR03;2018;12;2;3;55;56;;;;;;;;;;;;1;;;;3.91;0;;;
HAR03;2018;12;2;3;55;57;;;;;;;;;;;;1;;;;3.91;0;;;
HAR03;2018;12;2;3;56;0;-37.854600;77.524117;0.5;12;3.91;20;;;;;;;;3751276S;07731447E;;0;;;
HAR03;2018;12;2;4;1;14;;;;;;;;;;;;1;;;;3.91;0;;;
HAR03;2018;12;2;4;1;15;;;;;;;;;;;;1;;;;3.91;0;;;
HAR03;2018;12;2;4;11;0;-37.857250;77.515233;22.;7;3.92;15.5;;;;;;;;3751435S;07730914E;;0;;;
HAR03;2018;12;2;4;16;28;;;;;;;;;;;;1;;;;3.92;0;;;
HAR03;2018;12;2;4;16;29;;;;;;;;;;;;1;;;;3.92;0;;;
HAR03;2018;12;2;4;21;22;;;;;;;;;;;;1;;;;3.92;0;;;
HAR03;2018;12;2;4;21;23;;;;;;;;;;;;1;;;;3.92;0;;;
HAR03;2018;12;2;4;26;0;-37.854517;77.524317;0.4;10;3.93;22;;;;;;;;3751271S;07731459E;;0;;;
HAR03;2018;12;2;4;26;18;;;;;;;;;;;;1;;;;3.93;0;;;
HAR03;2018;12;2;4;26;19;;;;;;;;;;;;1;;;;3.93;0;;;
HAR03;2018;12;2;4;26;26;;;;;;;;;;;;1;;;;3.93;0;;;
HAR03;2018;12;2;4;26;27;;;;;;;;;;;;1;;;;3.93;0;;;
HAR03;2018;12;2;4;26;28;;;;;;;;;;;;1;;;;3.93;0;;;
HAR03;2018;12;2;4;31;42;;;;;;;;;;;;1;;;;3.93;0;;;
HAR03;2018;12;2;4;31;43;;;;;;;;;;;;1;;;;3.93;0;;;
HAR03;2018;12;2;4;36;37;;;;;;;;;;;;1;;;;3.93;0;;;
HAR03;2018;12;2;4;36;38;;;;;;;;;;;;1;;;;3.93;0;;;
HAR03;2018;12;2;4;41;0;-37.854933;77.523950;0.2;7;3.93;22.5;;;;;;;;3751296S;07731437E;;0;;;
HAR03;2018;12;2;4;41;33;;;;;;;;;;;;1;;;;3.94;0;;;
HAR03;2018;12;2;4;41;34;;;;;;;;;;;;1;;;;3.93;0;;;
HAR03;2018;12;2;4;41;41;;;;;;;;;;;;1;;;;3.94;0;;;
HAR03;2018;12;2;4;41;42;;;;;;;;;;;;1;;;;3.93;0;;;
HAR03;2018;12;2;4;41;43;;;;;;;;;;;;1;;;;3.93;0;;;
HAR03;2018;12;2;4;46;57;;;;;;;;;;;;1;;;;3.94;0;;;
HAR03;2018;12;2;4;46;58;;;;;;;;;;;;1;;;;3.94;0;;;
HAR03;2018;12;2;4;51;51;;;;;;;;;;;;1;;;;3.95;0;;;
HAR03;2018;12;2;4;51;52;;;;;;;;;;;;1;;;;3.95;0;;;
HAR03;2018;12;2;4;56;47;;;;;;;;;;;;1;;;;3.95;0;;;
HAR03;2018;12;2;4;56;48;;;;;;;;;;;;1;;;;3.95;0;;;
HAR03;2018;12;2;4;56;55;;;;;;;;;;;;1;;;;3.95;0;;;
HAR03;2018;12;2;4;56;56;;;;;;;;;;;;1;;;;3.95;0;;;
HAR03;2018;12;2;4;56;57;;;;;;;;;;;;1;;;;3.95;0;;;
HAR03;2018;12;2;4;57;0;-37.855533;77.523567;0.4;7;3.95;18.5;;;;;;;;3751332S;07731414E;;0;;;
HAR03;2018;12;2;5;2;9;;;;;;;;;;;;1;;;;3.95;0;;;
HAR03;2018;12;2;5;2;10;;;;;;;;;;;;1;;;;3.95;0;;;
HAR03;2018;12;2;5;7;4;;;;;;;;;;;;1;;;;3.95;0;;;
HAR03;2018;12;2;5;7;5;;;;;;;;;;;;1;;;;3.95;0;;;
HAR03;2018;12;2;5;12;0;-37.855783;77.523583;0.1;13;3.95;22;;;;;;;;3751347S;07731415E;;0;;;
HAR03;2018;12;2;5;12;0;;;;;;;;;;;;1;;;;3.95;0;;;
HAR03;2018;12;2;5;12;1;;;;;;;;;;;;1;;;;3.95;0;;;
HAR03;2018;12;2;5;12;8;;;;;;;;;;;;1;;;;3.95;0;;;
HAR03;2018;12;2;5;12;9;;;;;;;;;;;;1;;;;3.95;0;;;
HAR03;2018;12;2;5;12;10;;;;;;;;;;;;1;;;;3.95;0;;;
HAR03;2018;12;2;5;17;27;;;;;;;;;;;;1;;;;3.95;0;;;
HAR03;2018;12;2;5;17;28;;;;;;;;;;;;1;;;;3.95;0;;;
HAR03;2018;12;2;5;22;22;;;;;;;;;;;;1;;;;3.95;0;;;
HAR03;2018;12;2;5;22;23;;;;;;;;;;;;1;;;;3.95;0;;;
HAR03;2018;12;2;5;27;0;-37.853917;77.524933;0.0;9;3.95;21;;;;;;;;3751235S;07731496E;;0;;;
HAR03;2018;12;2;5;27;18;;;;;;;;;;;;1;;;;3.95;0;;;
HAR03;2018;12;2;5;27;19;;;;;;;;;;;;1;;;;3.95;0;;;
HAR03;2018;12;2;5;27;26;;;;;;;;;;;;1;;;;3.95;0;;;
HAR03;2018;12;2;5;27;27;;;;;;;;;;;;1;;;;3.95;0;;;
HAR03;2018;12;2;5;27;28;;;;;;;;;;;;1;;;;3.95;0;;;
HAR03;2018;12;2;5;32;41;;;;;;;;;;;;1;;;;3.97;0;;;
HAR03;2018;12;2;5;32;42;;;;;;;;;;;;1;;;;3.96;0;;;
HAR03;2018;12;2;5;37;36;;;;;;;;;;;;1;;;;3.97;0;;;
HAR03;2018;12;2;5;37;37;;;;;;;;;;;;1;;;;3.97;0;;;
HAR03;2018;12;2;5;42;32;;;;;;;;;;;;1;;;;3.98;0;;;
HAR03;2018;12;2;5;42;33;;;;;;;;;;;;1;;;;3.98;0;;;
HAR03;2018;12;2;5;42;40;;;;;;;;;;;;1;;;;3.98;0;;;
HAR03;2018;12;2;5;42;41;;;;;;;;;;;;1;;;;3.98;0;;;
HAR03;2018;12;2;5;42;42;;;;;;;;;;;;1;;;;3.98;0;;;
HAR03;2018;12;2;5;43;0;-37.854200;77.524917;0.4;26;3.98;32.5;;;;;;;;3751252S;07731495E;;0;;;
HAR03;2018;12;2;5;48;15;;;;;;;;;;;;1;;;;3.98;0;;;
HAR03;2018;12;2;5;48;16;;;;;;;;;;;;1;;;;3.98;0;;;
HAR03;2018;12;2;5;53;9;;;;;;;;;;;;1;;;;3.98;0;;;
HAR03;2018;12;2;5;53;10;;;;;;;;;;;;1;;;;3.98;0;;;
HAR03;2018;12;2;5;58;5;;;;;;;;;;;;1;;;;3.99;0;;;
HAR03;2018;12;2;5;58;6;;;;;;;;;;;;1;;;;3.99;0;;;
HAR03;2018;12;2;5;58;13;;;;;;;;;;;;1;;;;3.99;0;;;
HAR03;2018;12;2;5;58;14;;;;;;;;;;;;1;;;;3.99;0;;;
HAR03;2018;12;2;5;58;15;;;;;;;;;;;;1;;;;3.99;0;;;
HAR03;2018;12;2;5;59;0;-37.855517;77.523883;0.3;64;3.99;40;;;;;;;;3751331S;07731433E;;0;;;
HAR03;2018;12;2;6;4;24;;;;;;;;;;;;1;;;;3.98;0;;;
HAR03;2018;12;2;6;4;25;;;;;;;;;;;;1;;;;3.98;0;;;
HAR03;2018;12;2;6;9;18;;;;;;;;;;;;1;;;;3.98;0;;;
HAR03;2018;12;2;6;9;19;;;;;;;;;;;;1;;;;3.98;0;;;
HAR03;2018;12;2;6;14;0;-37.854433;77.524183;0.2;13;3.98;30.5;;;;;;;;3751266S;07731451E;;0;;;
HAR03;2018;12;2;6;14;14;;;;;;;;;;;;1;;;;3.98;0;;;
HAR03;2018;12;2;6;14;15;;;;;;;;;;;;1;;;;3.98;0;;;
HAR03;2018;12;2;6;14;22;;;;;;;;;;;;1;;;;3.98;0;;;
HAR03;2018;12;2;6;14;23;;;;;;;;;;;;1;;;;3.98;0;;;
HAR03;2018;12;2;6;14;24;;;;;;;;;;;;1;;;;3.98;0;;;
HAR03;2018;12;2;6;19;43;;;;;;;;;;;;1;;;;3.98;0;;;
HAR03;2018;12;2;6;19;44;;;;;;;;;;;;1;;;;3.98;0;;;
HAR03;2018;12;2;6;24;38;;;;;;;;;;;;1;;;;3.98;0;;;
HAR03;2018;12;2;6;24;39;;;;;;;;;;;;1;;;;3.98;0;;;
HAR03;2018;12;2;6;29;34;;;;;;;;;;;;1;;;;3.98;0;;;
HAR03;2018;12;2;6;29;35;;;;;;;;;;;;1;;;;3.98;0;;;
HAR03;2018;12;2;6;29;43;;;;;;;;;;;;1;;;;3.99;0;;;
HAR03;2018;12;2;6;29;43;;;;;;;;;;;;1;;;;3.98;0;;;
HAR03;2018;12;2;6;29;45;;;;;;;;;;;;1;;;;3.98;0;;;
HAR03;2018;12;2;6;30;0;-37.854333;77.524250;0.0;12;3.98;26;;;;;;;;3751260S;07731455E;;0;;;
HAR03;2018;12;2;6;35;4;;;;;;;;;;;;1;;;;3.99;0;;;
HAR03;2018;12;2;6;35;5;;;;;;;;;;;;1;;;;3.99;0;;;
HAR03;2018;12;2;6;39;58;;;;;;;;;;;;1;;;;4;0;;;
HAR03;2018;12;2;6;39;59;;;;;;;;;;;;1;;;;4;0;;;
HAR03;2018;12;2;6;44;54;;;;;;;;;;;;1;;;;3.99;0;;;
HAR03;2018;12;2;6;44;55;;;;;;;;;;;;1;;;;3.99;0;;;
HAR03;2018;12;2;6;45;0;-37.854600;77.524083;0.2;11;3.99;29.5;;;;;;;;3751276S;07731445E;;0;;;
HAR03;2018;12;2;6;45;2;;;;;;;;;;;;1;;;;3.99;0;;;
HAR03;2018;12;2;6;45;3;;;;;;;;;;;;1;;;;3.99;0;;;
HAR03;2018;12;2;6;45;4;;;;;;;;;;;;1;;;;3.99;0;;;
HAR03;2018;12;2;6;50;19;;;;;;;;;;;;1;;;;3.99;0;;;
HAR03;2018;12;2;6;50;20;;;;;;;;;;;;1;;;;3.99;0;;;
HAR03;2018;12;2;6;55;14;;;;;;;;;;;;1;;;;4;0;;;
HAR03;2018;12;2;6;55;15;;;;;;;;;;;;1;;;;3.99;0;;;
HAR03;2018;12;2;7;0;0;-37.855033;77.523583;0.4;7;4;32.5;;;;;;;;3751302S;07731415E;;0;;;
HAR03;2018;12;2;7;0;10;;;;;;;;;;;;1;;;;4;0;;;
HAR03;2018;12;2;7;0;11;;;;;;;;;;;;1;;;;4;0;;;
HAR03;2018;12;2;7;0;18;;;;;;;;;;;;1;;;;4;0;;;
HAR03;2018;12;2;7;0;19;;;;;;;;;;;;1;;;;4;0;;;
HAR03;2018;12;2;7;0;20;;;;;;;;;;;;1;;;;4;0;;;
HAR03;2018;12;2;7;5;33;;;;;;;;;;;;1;;;;4.01;0;;;
HAR03;2018;12;2;7;5;34;;;;;;;;;;;;1;;;;4;0;;;
HAR03;2018;12;2;7;10;27;;;;;;;;;;;;1;;;;4.02;0;;;
HAR03;2018;12;2;7;10;28;;;;;;;;;;;;1;;;;4.02;0;;;
HAR03;2018;12;2;7;15;0;-37.854900;77.524050;0.0;10;4.01;42;;;;;;;;3751294S;07731443E;;0;;;
HAR03;2018;12;2;7;15;23;;;;;;;;;;;;1;;;;4.01;0;;;
HAR03;2018;12;2;7;15;24;;;;;;;;;;;;1;;;;4.01;0;;;
HAR03;2018;12;2;7;15;31;;;;;;;;;;;;1;;;;4.01;0;;;
HAR03;2018;12;2;7;15;32;;;;;;;;;;;;1;;;;4.01;0;;;
HAR03;2018;12;2;7;15;33;;;;;;;;;;;;1;;;;4.01;0;;;
HAR03;2018;12;2;7;20;48;;;;;;;;;;;;1;;;;4.01;0;;;
HAR03;2018;12;2;7;20;49;;;;;;;;;;;;1;;;;4.01;0;;;
HAR03;2018;12;2;7;25;43;;;;;;;;;;;;1;;;;4.01;0;;;
HAR03;2018;12;2;7;25;44;;;;;;;;;;;;1;;;;4.01;0;;;
HAR03;2018;12;2;7;30;39;;;;;;;;;;;;1;;;;4.01;0;;;
HAR03;2018;12;2;7;30;40;;;;;;;;;;;;1;;;;4.01;0;;;
HAR03;2018;12;2;7;30;47;;;;;;;;;;;;1;;;;4.01;0;;;
HAR03;2018;12;2;7;30;48;;;;;;;;;;;;1;;;;4.01;0;;;
HAR03;2018;12;2;7;30;49;;;;;;;;;;;;1;;;;4.01;0;;;
HAR03;2018;12;2;7;31;0;-37.855100;77.524383;0.7;13;4.01;32.5;;;;;;;;3751306S;07731463E;;0;;;
HAR03;2018;12;2;7;36;7;;;;;;;;;;;;1;;;;4.02;0;;;
HAR03;2018;12;2;7;36;8;;;;;;;;;;;;1;;;;4.02;0;;;
HAR03;2018;12;2;7;41;2;;;;;;;;;;;;1;;;;4.02;0;;;
HAR03;2018;12;2;7;41;3;;;;;;;;;;;;1;;;;4.02;0;;;
HAR03;2018;12;2;7;45;58;;;;;;;;;;;;1;;;;4.03;0;;;
HAR03;2018;12;2;7;45;59;;;;;;;;;;;;1;;;;4.02;0;;;
HAR03;2018;12;2;7;46;0;-37.856150;77.524450;0.9;19;4.02;40.5;;;;;;;;3751369S;07731467E;;0;;;
HAR03;2018;12;2;7;46;6;;;;;;;;;;;;1;;;;4.03;0;;;
HAR03;2018;12;2;7;46;7;;;;;;;;;;;;1;;;;4.02;0;;;
HAR03;2018;12;2;7;46;8;;;;;;;;;;;;1;;;;4.02;0;;;
HAR03;2018;12;2;7;51;34;;;;;;;;;;;;1;;;;4.04;0;;;
HAR03;2018;12;2;7;51;35;;;;;;;;;;;;1;;;;4.04;0;;;
HAR03;2018;12;2;8;1;0;-37.857200;77.502183;1.2;9;4.06;21.5;;;;;;;;3751432S;07730131E;;0;;;
HAR03;2018;12;2;8;1;35;;;;;;;;;;;;1;;;;4.06;0;;;
HAR03;2018;12;2;8;6;51;;;;;;;;;;;;1;;;;4.08;0;;;
HAR03;2018;12;2;8;6;53;;;;;;;;;;;;1;;;;4.08;0;;;
HAR03;2018;12;2;8;16;40;;;;;;;;;;;;1;;;;4.09;0;;;
HAR03;2018;12;2;8;16;41;;;;;;;;;;;;1;;;;4.09;0;;;
HAR03;2018;12;2;8;16;48;;;;;;;;;;;;1;;;;4.1;0;;;
HAR03;2018;12;2;8;16;49;;;;;;;;;;;;1;;;;4.1;0;;;
HAR03;2018;12;2;8;16;50;;;;;;;;;;;;1;;;;4.09;0;;;
HAR03;2018;12;2;8;17;0;-37.854633;77.524550;1.6;59;4.09;18.5;;;;;;;;3751278S;07731473E;;0;;;
HAR03;2018;12;2;8;22;56;;;;;;;;;;;;1;;;;4.09;0;;;
HAR03;2018;12;2;8;22;57;;;;;;;;;;;;1;;;;4.09;0;;;
HAR03;2018;12;2;8;27;50;;;;;;;;;;;;1;;;;4.09;0;;;
HAR03;2018;12;2;8;27;51;;;;;;;;;;;;1;;;;4.09;0;;;
HAR03;2018;12;2;8;32;46;;;;;;;;;;;;1;;;;4.1;0;;;
HAR03;2018;12;2;8;32;47;;;;;;;;;;;;1;;;;4.1;0;;;
HAR03;2018;12;2;8;32;54;;;;;;;;;;;;1;;;;4.1;0;;;
HAR03;2018;12;2;8;32;55;;;;;;;;;;;;1;;;;4.1;0;;;
HAR03;2018;12;2;8;32;56;;;;;;;;;;;;1;;;;4.1;0;;;
HAR03;2018;12;2;8;33;0;-37.855083;77.524233;27.;15;4.1;29.5;;;;;;;;3751305S;07731454E;;0;;;
HAR03;2018;12;2;8;38;16;;;;;;;;;;;;1;;;;4.1;0;;;
HAR03;2018;12;2;8;38;17;;;;;;;;;;;;1;;;;4.1;0;;;
HAR03;2018;12;2;8;43;10;;;;;;;;;;;;1;;;;4.1;0;;;
HAR03;2018;12;2;8;43;11;;;;;;;;;;;;1;;;;4.1;0;;;
HAR03;2018;12;2;8;48;0;-37.854950;77.524950;0.6;13;4.11;40;;;;;;;;3751297S;07731497E;;0;;;
HAR03;2018;12;2;8;48;6;;;;;;;;;;;;1;;;;4.11;0;;;
HAR03;2018;12;2;8;48;7;;;;;;;;;;;;1;;;;4.11;0;;;
HAR03;2018;12;2;8;48;14;;;;;;;;;;;;1;;;;4.11;0;;;
HAR03;2018;12;2;8;48;15;;;;;;;;;;;;1;;;;4.11;0;;;
HAR03;2018;12;2;8;48;16;;;;;;;;;;;;1;;;;4.11;0;;;
HAR03;2018;12;2;8;53;33;;;;;;;;;;;;1;;;;4.12;0;;;
HAR03;2018;12;2;8;53;34;;;;;;;;;;;;1;;;;4.12;0;;;
HAR03;2018;12;2;8;58;28;;;;;;;;;;;;1;;;;4.12;0;;;
HAR03;2018;12;2;8;58;29;;;;;;;;;;;;1;;;;4.12;0;;;
HAR03;2018;12;2;9;3;0;-37.855933;77.525850;0.4;11;4.12;40.5;;;;;;;;3751356S;07731551E;;0;;;
HAR03;2018;12;2;9;3;24;;;;;;;;;;;;1;;;;4.12;0;;;
HAR03;2018;12;2;9;3;25;;;;;;;;;;;;1;;;;4.12;0;;;
HAR03;2018;12;2;9;3;32;;;;;;;;;;;;1;;;;4.12;0;;;
HAR03;2018;12;2;9;3;34;;;;;;;;;;;;1;;;;4.12;0;;;
HAR03;2018;12;2;9;3;35;;;;;;;;;;;;1;;;;4.12;0;;;
HAR03;2018;12;2;9;8;51;;;;;;;;;;;;1;;;;4.12;0;;;
HAR03;2018;12;2;9;8;52;;;;;;;;;;;;1;;;;4.12;0;;;
HAR03;2018;12;2;9;13;46;;;;;;;;;;;;1;;;;4.12;0;;;
HAR03;2018;12;2;9;13;47;;;;;;;;;;;;1;;;;4.12;0;;;
HAR03;2018;12;2;9;18;42;;;;;;;;;;;;1;;;;4.13;0;;;
HAR03;2018;12;2;9;18;43;;;;;;;;;;;;1;;;;4.13;0;;;
HAR03;2018;12;2;9;18;50;;;;;;;;;;;;1;;;;4.13;0;;;
HAR03;2018;12;2;9;18;51;;;;;;;;;;;;1;;;;4.13;0;;;
HAR03;2018;12;2;9;18;52;;;;;;;;;;;;1;;;;4.13;0;;;
HAR03;2018;12;2;9;20;0;-37.854650;77.524100;0.2;82;4.13;38;;;;;;;;3751279S;07731446E;;0;;;
HAR03;2018;12;2;9;25;19;;;;;;;;;;;;1;;;;4.13;0;;;
HAR03;2018;12;2;9;25;20;;;;;;;;;;;;1;;;;4.13;0;;;
HAR03;2018;12;2;9;30;14;;;;;;;;;;;;1;;;;4.14;0;;;
HAR03;2018;12;2;9;30;15;;;;;;;;;;;;1;;;;4.14;0;;;
HAR03;2018;12;2;9;35;0;-37.854750;77.523367;33.;9;4.14;33.5;;;;;;;;3751285S;07731402E;;0;;;
HAR03;2018;12;2;9;35;10;;;;;;;;;;;;1;;;;4.15;0;;;
HAR03;2018;12;2;9;35;18;;;;;;;;;;;;1;;;;4.15;0;;;
HAR03;2018;12;2;9;35;19;;;;;;;;;;;;1;;;;4.15;0;;;
HAR03;2018;12;2;9;35;20;;;;;;;;;;;;1;;;;4.14;0;;;
HAR03;2018;12;2;9;39;19;;;;;;;;;;;;1;;;;4.15;0;;;
HAR03;2018;12;2;9;40;20;;;;;;;;;;;;1;;;;4.14;0;;;
HAR03;2018;12;2;9;40;32;;;;;;;;;;;;1;;;;4.14;0;;;
HAR03;2018;12;2;9;40;33;;;;;;;;;;;;1;;;;4.14;0;;;
HAR03;2018;12;2;9;41;23;;;;;;;;;;;;1;;;;4.14;0;;;
HAR03;2018;12;2;9;42;24;;;;;;;;;;;;1;;;;4.14;0;;;
HAR03;2018;12;2;9;43;25;;;;;;;;;;;;1;;;;4.13;0;;;
HAR03;2018;12;2;9;44;27;;;;;;;;;;;;1;;;;4.14;0;;;
HAR03;2018;12;2;9;45;28;;;;;;;;;;;;1;;;;4.13;0;;;
HAR03;2018;12;2;9;45;29;;;;;;;;;;;;1;;;;4.13;0;;;
HAR03;2018;12;2;9;45;31;;;;;;;;;;;;1;;;;4.14;0;;;
HAR03;2018;12;2;9;46;32;;;;;;;;;;;;1;;;;4.13;0;;;
HAR03;2018;12;2;9;47;33;;;;;;;;;;;;1;;;;4.13;0;;;
HAR03;2018;12;2;9;48;35;;;;;;;;;;;;1;;;;4.13;0;;;
HAR03;2018;12;2;9;49;37;;;;;;;;;;;;1;;;;4.13;0;;;
HAR03;2018;12;2;9;50;0;-37.854650;77.524150;0.0;2;4.12;31;;;;;;;;3751279S;07731449E;;0;;;
HAR03;2018;12;2;9;50;24;;;;;;;;;;;;1;;;;4.12;0;;;
HAR03;2018;12;2;9;50;25;;;;;;;;;;;;1;;;;4.12;0;;;
HAR03;2018;12;2;9;50;32;;;;;;;;;;;;1;;;;4.12;0;;;
HAR03;2018;12;2;9;50;33;;;;;;;;;;;;1;;;;4.12;0;;;
HAR03;2018;12;2;9;50;50;;;;;;;;;;;;1;;;;4.12;0;;;
HAR03;2018;12;2;9;55;51;;;;;;;;;;;;1;;;;4.13;0;;;
HAR03;2018;12;2;9;55;52;;;;;;;;;;;;1;;;;4.13;0;;;
HAR03;2018;12;2;10;0;45;;;;;;;;;;;;1;;;;4.14;0;;;
HAR03;2018;12;2;10;0;46;;;;;;;;;;;;1;;;;4.14;0;;;
HAR03;2018;12;2;10;5;41;;;;;;;;;;;;1;;;;4.15;0;;;
HAR03;2018;12;2;10;5;42;;;;;;;;;;;;1;;;;4.14;0;;;
HAR03;2018;12;2;10;5;49;;;;;;;;;;;;1;;;;4.14;0;;;
HAR03;2018;12;2;10;5;50;;;;;;;;;;;;1;;;;4.14;0;;;
HAR03;2018;12;2;10;5;51;;;;;;;;;;;;1;;;;4.14;0;;;
HAR03;2018;12;2;10;6;0;-37.854400;77.524667;0.4;13;4.14;31.5;;;;;;;;3751264S;07731480E;;0;;;
HAR03;2018;12;2;10;11;7;;;;;;;;;;;;1;;;;4.14;0;;;
HAR03;2018;12;2;10;11;8;;;;;;;;;;;;1;;;;4.14;0;;;
HAR03;2018;12;2;10;16;2;;;;;;;;;;;;1;;;;4.14;0;;;
HAR03;2018;12;2;10;16;3;;;;;;;;;;;;1;;;;4.14;0;;;
HAR03;2018;12;2;10;20;58;;;;;;;;;;;;1;;;;4.14;0;;;
HAR03;2018;12;2;10;20;59;;;;;;;;;;;;1;;;;4.14;0;;;
HAR03;2018;12;2;10;21;0;-37.854650;77.524100;0.9;16;4.14;27.5;;;;;;;;3751279S;07731446E;;0;;;
HAR03;2018;12;2;10;21;6;;;;;;;;;;;;1;;;;4.14;0;;;
HAR03;2018;12;2;10;21;7;;;;;;;;;;;;1;;;;4.14;0;;;
HAR03;2018;12;2;10;21;8;;;;;;;;;;;;1;;;;4.14;0;;;
HAR03;2018;12;2;10;26;30;;;;;;;;;;;;1;;;;4.14;0;;;
HAR03;2018;12;2;10;26;31;;;;;;;;;;;;1;;;;4.14;0;;;
HAR03;2018;12;2;10;31;24;;;;;;;;;;;;1;;;;4.14;0;;;
HAR03;2018;12;2;10;31;25;;;;;;;;;;;;1;;;;4.14;0;;;
HAR03;2018;12;2;10;36;0;-37.854233;77.524300;1.1;7;4.15;26.5;;;;;;;;3751254S;07731458E;;0;;;
HAR03;2018;12;2;10;36;20;;;;;;;;;;;;1;;;;4.15;0;;;
HAR03;2018;12;2;10;36;21;;;;;;;;;;;;1;;;;4.15;0;;;
HAR03;2018;12;2;10;36;28;;;;;;;;;;;;1;;;;4.15;0;;;
HAR03;2018;12;2;10;36;29;;;;;;;;;;;;1;;;;4.15;0;;;
HAR03;2018;12;2;10;36;30;;;;;;;;;;;;1;;;;4.15;0;;;
HAR03;2018;12;2;10;41;9;;;;;;;;;;;;1;;;;4.15;0;;;
HAR03;2018;12;2;10;41;42;;;;;;;;;;;;1;;;;4.14;0;;;
HAR03;2018;12;2;10;41;43;;;;;;;;;;;;1;;;;4.14;0;;;
HAR03;2018;12;2;10;42;13;;;;;;;;;;;;1;;;;4.14;0;;;
HAR03;2018;12;2;10;43;14;;;;;;;;;;;;1;;;;4.14;0;;;
HAR03;2018;12;2;10;44;16;;;;;;;;;;;;1;;;;4.14;0;;;
HAR03;2018;12;2;10;45;17;;;;;;;;;;;;1;;;;4.13;0;;;
HAR03;2018;12;2;10;46;18;;;;;;;;;;;;1;;;;4.13;0;;;
HAR03;2018;12;2;10;46;38;;;;;;;;;;;;1;;;;4.13;0;;;
HAR03;2018;12;2;10;46;39;;;;;;;;;;;;1;;;;4.13;0;;;
HAR03;2018;12;2;10;48;22;;;;;;;;;;;;1;;;;4.13;0;;;
HAR03;2018;12;2;10;49;23;;;;;;;;;;;;1;;;;4.13;0;;;
HAR03;2018;12;2;10;50;25;;;;;;;;;;;;1;;;;4.12;0;;;
HAR03;2018;12;2;10;51;26;;;;;;;;;;;;1;;;;4.12;0;;;
HAR03;2018;12;2;10;51;34;;;;;;;;;;;;1;;;;4.12;0;;;
HAR03;2018;12;2;10;51;35;;;;;;;;;;;;1;;;;4.12;0;;;
HAR03;2018;12;2;10;51;42;;;;;;;;;;;;1;;;;4.12;0;;;
HAR03;2018;12;2;10;51;43;;;;;;;;;;;;1;;;;4.12;0;;;
HAR03;2018;12;2;10;52;0;-37.854800;77.524033;0.2;2;4.12;33;;;;;;;;3751288S;07731442E;;0;;;
HAR03;2018;12;2;10;52;1;;;;;;;;;;;;1;;;;4.12;0;;;
HAR03;2018;12;2;10;57;2;;;;;;;;;;;;1;;;;4.12;0;;;
HAR03;2018;12;2;10;57;3;;;;;;;;;;;;1;;;;4.12;0;;;
HAR03;2018;12;2;11;1;56;;;;;;;;;;;;1;;;;4.12;0;;;
HAR03;2018;12;2;11;1;57;;;;;;;;;;;;1;;;;4.12;0;;;
HAR03;2018;12;2;11;6;52;;;;;;;;;;;;1;;;;4.13;0;;;
HAR03;2018;12;2;11;6;53;;;;;;;;;;;;1;;;;4.13;0;;;
HAR03;2018;12;2;11;7;0;-37.854650;77.524067;3.5;8;4.13;28.5;;;;;;;;3751279S;07731444E;;0;;;
HAR03;2018;12;2;11;7;0;;;;;;;;;;;;1;;;;4.13;0;;;
HAR03;2018;12;2;11;7;1;;;;;;;;;;;;1;;;;4.13;0;;;
HAR03;2018;12;2;11;7;2;;;;;;;;;;;;1;;;;4.13;0;;;
HAR03;2018;12;2;11;12;15;;;;;;;;;;;;1;;;;4.13;0;;;
HAR03;2018;12;2;11;12;16;;;;;;;;;;;;1;;;;4.13;0;;;
HAR03;2018;12;2;11;17;9;;;;;;;;;;;;1;;;;4.13;0;;;
HAR03;2018;12;2;11;17;10;;;;;;;;;;;;1;;;;4.13;0;;;
HAR03;2018;12;2;11;22;0;-37.855250;77.523667;0.5;8;4.13;27;;;;;;;;3751315S;07731420E;;0;;;
HAR03;2018;12;2;11;22;6;;;;;;;;;;;;1;;;;4.13;0;;;
HAR03;2018;12;2;11;22;13;;;;;;;;;;;;1;;;;4.13;0;;;
HAR03;2018;12;2;11;22;14;;;;;;;;;;;;1;;;;4.13;0;;;
HAR03;2018;12;2;11;22;15;;;;;;;;;;;;1;;;;4.13;0;;;
HAR03;2018;12;2;11;27;28;;;;;;;;;;;;1;;;;4.13;0;;;
HAR03;2018;12;2;11;27;29;;;;;;;;;;;;1;;;;4.13;0;;;
HAR03;2018;12;2;11;32;23;;;;;;;;;;;;1;;;;4.13;0;;;
HAR03;2018;12;2;11;32;24;;;;;;;;;;;;1;;;;4.13;0;;;
HAR03;2018;12;2;11;37;0;-37.854517;77.524150;1.0;7;4.13;23.5;;;;;;;;3751271S;07731449E;;0;;;
HAR03;2018;12;2;11;37;19;;;;;;;;;;;;1;;;;4.13;0;;;
HAR03;2018;12;2;11;37;20;;;;;;;;;;;;1;;;;4.13;0;;;
HAR03;2018;12;2;11;37;27;;;;;;;;;;;;1;;;;4.13;0;;;
HAR03;2018;12;2;11;37;28;;;;;;;;;;;;1;;;;4.13;0;;;
HAR03;2018;12;2;11;37;29;;;;;;;;;;;;1;;;;4.13;0;;;
HAR03;2018;12;2;11;42;41;;;;;;;;;;;;1;;;;4.13;0;;;
HAR03;2018;12;2;11;42;42;;;;;;;;;;;;1;;;;4.13;0;;;
HAR03;2018;12;2;11;47;36;;;;;;;;;;;;1;;;;4.13;0;;;
HAR03;2018;12;2;11;47;37;;;;;;;;;;;;1;;;;4.13;0;;;
HAR03;2018;12;2;11;52;32;;;;;;;;;;;;1;;;;4.14;0;;;
HAR03;2018;12;2;11;52;33;;;;;;;;;;;;1;;;;4.14;0;;;
HAR03;2018;12;2;11;52;40;;;;;;;;;;;;1;;;;4.14;0;;;
HAR03;2018;12;2;11;52;41;;;;;;;;;;;;1;;;;4.14;0;;;
HAR03;2018;12;2;11;52;42;;;;;;;;;;;;1;;;;4.14;0;;;
HAR03;2018;12;2;11;53;0;-37.854500;77.524117;0.4;17;4.14;24;;;;;;;;3751270S;07731447E;;0;;;
HAR03;2018;12;2;11;58;7;;;;;;;;;;;;1;;;;4.15;0;;;
HAR03;2018;12;2;11;58;8;;;;;;;;;;;;1;;;;4.15;0;;;
HAR03;2018;12;2;12;3;0;;;;;;;;;;;;1;;;;4.15;0;;;
HAR03;2018;12;2;12;3;1;;;;;;;;;;;;1;;;;4.15;0;;;
HAR03;2018;12;2;12;7;56;;;;;;;;;;;;1;;;;4.15;0;;;
HAR03;2018;12;2;12;7;57;;;;;;;;;;;;1;;;;4.15;0;;;
HAR03;2018;12;2;12;8;0;-37.854983;77.524133;16.;7;4.15;24;;;;;;;;3751299S;07731448E;;0;;;
HAR03;2018;12;2;12;8;4;;;;;;;;;;;;1;;;;4.15;0;;;
HAR03;2018;12;2;12;8;5;;;;;;;;;;;;1;;;;4.15;0;;;
HAR03;2018;12;2;12;8;6;;;;;;;;;;;;1;;;;4.15;0;;;
HAR03;2018;12;2;12;13;17;;;;;;;;;;;;1;;;;4.15;0;;;
HAR03;2018;12;2;12;13;18;;;;;;;;;;;;1;;;;4.15;0;;;
HAR03;2018;12;2;12;18;12;;;;;;;;;;;;1;;;;4.15;0;;;
HAR03;2018;12;2;12;18;13;;;;;;;;;;;;1;;;;4.15;0;;;
HAR03;2018;12;2;12;23;0;-37.854650;77.523900;1.2;13;4.15;18;;;;;;;;3751279S;07731434E;;0;;;
HAR03;2018;12;2;12;23;8;;;;;;;;;;;;1;;;;4.15;0;;;
HAR03;2018;12;2;12;23;9;;;;;;;;;;;;1;;;;4.15;0;;;
HAR03;2018;12;2;12;23;16;;;;;;;;;;;;1;;;;4.15;0;;;
HAR03;2018;12;2;12;23;17;;;;;;;;;;;;1;;;;4.15;0;;;
HAR03;2018;12;2;12;23;18;;;;;;;;;;;;1;;;;4.15;0;;;
HAR03;2018;12;2;12;28;37;;;;;;;;;;;;1;;;;4.15;0;;;
HAR03;2018;12;2;12;28;38;;;;;;;;;;;;1;;;;4.15;0;;;
HAR03;2018;12;2;12;33;31;;;;;;;;;;;;1;;;;4.15;0;;;
HAR03;2018;12;2;12;33;32;;;;;;;;;;;;1;;;;4.15;0;;;
HAR03;2018;12;2;12;38;0;-37.854517;77.523933;0.7;11;4.15;18;;;;;;;;3751271S;07731436E;;0;;;
HAR03;2018;12;2;12;38;27;;;;;;;;;;;;1;;;;4.15;0;;;
HAR03;2018;12;2;12;38;28;;;;;;;;;;;;1;;;;4.15;0;;;
HAR03;2018;12;2;12;38;35;;;;;;;;;;;;1;;;;4.15;0;;;
HAR03;2018;12;2;12;38;36;;;;;;;;;;;;1;;;;4.15;0;;;
HAR03;2018;12;2;12;38;37;;;;;;;;;;;;1;;;;4.15;0;;;
HAR03;2018;12;2;12;43;55;;;;;;;;;;;;1;;;;4.15;0;;;
HAR03;2018;12;2;12;43;56;;;;;;;;;;;;1;;;;4.15;0;;;
HAR03;2018;12;2;12;48;49;;;;;;;;;;;;1;;;;4.15;0;;;
HAR03;2018;12;2;12;48;50;;;;;;;;;;;;1;;;;4.15;0;;;
HAR03;2018;12;2;12;53;45;;;;;;;;;;;;1;;;;4.15;0;;;
HAR03;2018;12;2;12;53;46;;;;;;;;;;;;1;;;;4.15;0;;;
HAR03;2018;12;2;12;53;53;;;;;;;;;;;;1;;;;4.15;0;;;
HAR03;2018;12;2;12;53;54;;;;;;;;;;;;1;;;;4.15;0;;;
HAR03;2018;12;2;12;53;55;;;;;;;;;;;;1;;;;4.15;0;;;
HAR03;2018;12;2;12;54;0;-37.854383;77.524117;0.4;10;4.15;19.5;;;;;;;;3751263S;07731447E;;0;;;
HAR03;2018;12;2;12;59;12;;;;;;;;;;;;1;;;;4.15;0;;;
HAR03;2018;12;2;12;59;13;;;;;;;;;;;;1;;;;4.15;0;;;
HAR03;2018;12;2;13;4;6;;;;;;;;;;;;1;;;;4.15;0;;;
HAR03;2018;12;2;13;4;7;;;;;;;;;;;;1;;;;4.15;0;;;
HAR03;2018;12;2;13;9;0;-37.854717;77.523483;1.0;10;4.15;19;;;;;;;;3751283S;07731409E;;0;;;
HAR03;2018;12;2;13;9;2;;;;;;;;;;;;1;;;;4.15;0;;;
HAR03;2018;12;2;13;9;3;;;;;;;;;;;;1;;;;4.15;0;;;
HAR03;2018;12;2;13;9;10;;;;;;;;;;;;1;;;;4.15;0;;;
HAR03;2018;12;2;13;9;11;;;;;;;;;;;;1;;;;4.15;0;;;
HAR03;2018;12;2;13;9;12;;;;;;;;;;;;1;;;;4.15;0;;;
HAR03;2018;12;2;13;14;28;;;;;;;;;;;;1;;;;4.15;0;;;
HAR03;2018;12;2;13;14;29;;;;;;;;;;;;1;;;;4.15;0;;;
HAR03;2018;12;2;13;19;22;;;;;;;;;;;;1;;;;4.15;0;;;
HAR03;2018;12;2;13;19;23;;;;;;;;;;;;1;;;;4.15;0;;;
HAR03;2018;12;2;13;24;0;-37.854267;77.524333;2.4;8;4.15;18;;;;;;;;3751256S;07731460E;;0;;;
HAR03;2018;12;2;13;24;18;;;;;;;;;;;;1;;;;4.15;0;;;
HAR03;2018;12;2;13;24;19;;;;;;;;;;;;1;;;;4.15;0;;;
HAR03;2018;12;2;13;24;26;;;;;;;;;;;;1;;;;4.15;0;;;
HAR03;2018;12;2;13;24;27;;;;;;;;;;;;1;;;;4.15;0;;;
HAR03;2018;12;2;13;24;28;;;;;;;;;;;;1;;;;4.15;0;;;
HAR03;2018;12;2;13;29;43;;;;;;;;;;;;1;;;;4.15;0;;;
HAR03;2018;12;2;13;29;44;;;;;;;;;;;;1;;;;4.15;0;;;
HAR03;2018;12;2;13;34;37;;;;;;;;;;;;1;;;;4.15;0;;;
HAR03;2018;12;2;13;34;38;;;;;;;;;;;;1;;;;4.14;0;;;
HAR03;2018;12;2;13;39;33;;;;;;;;;;;;1;;;;4.15;0;;;
HAR03;2018;12;2;13;39;34;;;;;;;;;;;;1;;;;4.15;0;;;
HAR03;2018;12;2;13;39;42;;;;;;;;;;;;1;;;;4.15;0;;;
HAR03;2018;12;2;13;39;43;;;;;;;;;;;;1;;;;4.14;0;;;
HAR03;2018;12;2;13;39;44;;;;;;;;;;;;1;;;;4.14;0;;;
HAR03;2018;12;2;13;40;0;-37.854300;77.524183;0.6;18;4.14;18;;;;;;;;3751258S;07731451E;;0;;;
HAR03;2018;12;2;13;45;6;;;;;;;;;;;;1;;;;4.14;0;;;
HAR03;2018;12;2;13;45;7;;;;;;;;;;;;1;;;;4.14;0;;;
HAR03;2018;12;2;13;50;1;;;;;;;;;;;;1;;;;4.14;0;;;
HAR03;2018;12;2;13;50;2;;;;;;;;;;;;1;;;;4.14;0;;;
HAR03;2018;12;2;13;54;57;;;;;;;;;;;;1;;;;4.14;0;;;
HAR03;2018;12;2;13;54;58;;;;;;;;;;;;1;;;;4.14;0;;;
HAR03;2018;12;2;13;55;0;-37.854767;77.523883;0.6;9;4.14;16.5;;;;;;;;3751286S;07731433E;;0;;;
HAR03;2018;12;2;13;55;5;;;;;;;;;;;;1;;;;4.14;0;;;
HAR03;2018;12;2;13;55;7;;;;;;;;;;;;1;;;;4.14;0;;;
HAR03;2018;12;2;13;55;8;;;;;;;;;;;;1;;;;4.14;0;;;
HAR03;2018;12;2;14;0;22;;;;;;;;;;;;1;;;;4.14;0;;;
HAR03;2018;12;2;14;0;23;;;;;;;;;;;;1;;;;4.14;0;;;
HAR03;2018;12;2;14;5;16;;;;;;;;;;;;1;;;;4.14;0;;;
HAR03;2018;12;2;14;5;17;;;;;;;;;;;;1;;;;4.14;0;;;
HAR03;2018;12;2;14;10;0;-37.854200;77.524217;0.4;13;4.14;16;;;;;;;;3751252S;07731453E;;0;;;
HAR03;2018;12;2;14;10;12;;;;;;;;;;;;1;;;;4.14;0;;;
HAR03;2018;12;2;14;10;13;;;;;;;;;;;;1;;;;4.14;0;;;
HAR03;2018;12;2;14;10;20;;;;;;;;;;;;1;;;;4.14;0;;;
HAR03;2018;12;2;14;10;21;;;;;;;;;;;;1;;;;4.14;0;;;
HAR03;2018;12;2;14;10;22;;;;;;;;;;;;1;;;;4.14;0;;;
HAR03;2018;12;2;14;15;42;;;;;;;;;;;;1;;;;4.14;0;;;
HAR03;2018;12;2;14;15;43;;;;;;;;;;;;1;;;;4.14;0;;;
HAR03;2018;12;2;14;20;37;;;;;;;;;;;;1;;;;4.14;0;;;
HAR03;2018;12;2;14;20;38;;;;;;;;;;;;1;;;;4.14;0;;;
HAR03;2018;12;2;14;25;33;;;;;;;;;;;;1;;;;4.14;0;;;
HAR03;2018;12;2;14;25;34;;;;;;;;;;;;1;;;;4.14;0;;;
HAR03;2018;12;2;14;25;41;;;;;;;;;;;;1;;;;4.14;0;;;
HAR03;2018;12;2;14;25;42;;;;;;;;;;;;1;;;;4.14;0;;;
HAR03;2018;12;2;14;25;43;;;;;;;;;;;;1;;;;4.14;0;;;
HAR03;2018;12;2;14;26;0;-37.854017;77.524333;0.5;14;4.14;16;;;;;;;;3751241S;07731460E;;0;;;
HAR03;2018;12;2;14;31;1;;;;;;;;;;;;1;;;;4.14;0;;;
HAR03;2018;12;2;14;31;2;;;;;;;;;;;;1;;;;4.14;0;;;
HAR03;2018;12;2;14;35;55;;;;;;;;;;;;1;;;;4.14;0;;;
HAR03;2018;12;2;14;35;56;;;;;;;;;;;;1;;;;4.14;0;;;
HAR03;2018;12;2;14;40;51;;;;;;;;;;;;1;;;;4.14;0;;;
HAR03;2018;12;2;14;40;52;;;;;;;;;;;;1;;;;4.14;0;;;
HAR03;2018;12;2;14;40;59;;;;;;;;;;;;1;;;;4.14;0;;;
HAR03;2018;12;2;14;41;0;;;;;;;;;;;;1;;;;4.14;0;;;
HAR03;2018;12;2;14;41;1;;;;;;;;;;;;1;;;;4.14;0;;;
HAR03;2018;12;2;14;42;0;-37.855050;77.523900;0.5;54;4.14;16.5;;;;;;;;3751303S;07731434E;;0;;;
HAR03;2018;12;2;14;47;1;;;;;;;;;;;;1;;;;4.13;0;;;
HAR03;2018;12;2;14;47;2;;;;;;;;;;;;1;;;;4.13;0;;;
HAR03;2018;12;2;14;51;55;;;;;;;;;;;;1;;;;4.13;0;;;
HAR03;2018;12;2;14;51;56;;;;;;;;;;;;1;;;;4.13;0;;;
HAR03;2018;12;2;14;56;51;;;;;;;;;;;;1;;;;4.13;0;;;
HAR03;2018;12;2;14;56;52;;;;;;;;;;;;1;;;;4.13;0;;;
HAR03;2018;12;2;14;56;59;;;;;;;;;;;;1;;;;4.13;0;;;
HAR03;2018;12;2;14;57;0;-37.854717;77.524150;0.8;16;4.13;16;;;;;;;;3751283S;07731449E;;0;;;
HAR03;2018;12;2;14;57;1;;;;;;;;;;;;1;;;;4.13;0;;;
HAR03;2018;12;2;14;57;2;;;;;;;;;;;;1;;;;4.13;0;;;
HAR03;2018;12;2;15;2;27;;;;;;;;;;;;1;;;;4.13;0;;;
HAR03;2018;12;2;15;2;28;;;;;;;;;;;;1;;;;4.13;0;;;
HAR03;2018;12;2;15;7;21;;;;;;;;;;;;1;;;;4.13;0;;;
HAR03;2018;12;2;15;7;22;;;;;;;;;;;;1;;;;4.13;0;;;
HAR03;2018;12;2;15;12;0;-37.854583;77.523717;0.8;10;4.13;16.5;;;;;;;;3751275S;07731423E;;0;;;
HAR03;2018;12;2;15;12;17;;;;;;;;;;;;1;;;;4.13;0;;;
HAR03;2018;12;2;15;12;18;;;;;;;;;;;;1;;;;4.13;0;;;
HAR03;2018;12;2;15;12;25;;;;;;;;;;;;1;;;;4.13;0;;;
HAR03;2018;12;2;15;12;26;;;;;;;;;;;;1;;;;4.13;0;;;
HAR03;2018;12;2;15;12;27;;;;;;;;;;;;1;;;;4.13;0;;;
HAR03;2018;12;2;15;17;41;;;;;;;;;;;;1;;;;4.13;0;;;
HAR03;2018;12;2;15;17;42;;;;;;;;;;;;1;;;;4.13;0;;;
HAR03;2018;12;2;15;22;36;;;;;;;;;;;;1;;;;4.13;0;;;
HAR03;2018;12;2;15;22;37;;;;;;;;;;;;1;;;;4.13;0;;;
HAR03;2018;12;2;15;27;32;;;;;;;;;;;;1;;;;4.13;0;;;
HAR03;2018;12;2;15;27;33;;;;;;;;;;;;1;;;;4.13;0;;;
HAR03;2018;12;2;15;27;40;;;;;;;;;;;;1;;;;4.13;0;;;
HAR03;2018;12;2;15;27;41;;;;;;;;;;;;1;;;;4.13;0;;;
HAR03;2018;12;2;15;27;42;;;;;;;;;;;;1;;;;4.13;0;;;
HAR03;2018;12;2;15;28;0;-37.854450;77.524300;0.9;28;4.13;16.5;;;;;;;;3751267S;07731458E;;0;;;
HAR03;2018;12;2;15;33;16;;;;;;;;;;;;1;;;;4.13;0;;;
HAR03;2018;12;2;15;33;17;;;;;;;;;;;;1;;;;4.12;0;;;
HAR03;2018;12;2;15;38;10;;;;;;;;;;;;1;;;;4.13;0;;;
HAR03;2018;12;2;15;38;11;;;;;;;;;;;;1;;;;4.13;0;;;
HAR03;2018;12;2;15;43;0;-37.854633;77.524183;0.4;18;4.13;16.5;;;;;;;;3751278S;07731451E;;0;;;
HAR03;2018;12;2;15;43;6;;;;;;;;;;;;1;;;;4.13;0;;;
HAR03;2018;12;2;15;43;7;;;;;;;;;;;;1;;;;4.13;0;;;
HAR03;2018;12;2;15;43;14;;;;;;;;;;;;1;;;;4.13;0;;;
HAR03;2018;12;2;15;43;15;;;;;;;;;;;;1;;;;4.12;0;;;
HAR03;2018;12;2;15;43;16;;;;;;;;;;;;1;;;;4.13;0;;;
HAR03;2018;12;2;15;48;40;;;;;;;;;;;;1;;;;4.12;0;;;
HAR03;2018;12;2;15;48;41;;;;;;;;;;;;1;;;;4.12;0;;;
HAR03;2018;12;2;15;53;34;;;;;;;;;;;;1;;;;4.13;0;;;
HAR03;2018;12;2;15;53;35;;;;;;;;;;;;1;;;;4.12;0;;;
HAR03;2018;12;2;15;58;30;;;;;;;;;;;;1;;;;4.12;0;;;
HAR03;2018;12;2;15;58;31;;;;;;;;;;;;1;;;;4.12;0;;;
HAR03;2018;12;2;15;58;38;;;;;;;;;;;;1;;;;4.12;0;;;
HAR03;2018;12;2;15;58;39;;;;;;;;;;;;1;;;;4.12;0;;;
HAR03;2018;12;2;15;58;40;;;;;;;;;;;;1;;;;4.12;0;;;
HAR03;2018;12;2;15;59;0;-37.854700;77.524117;0.7;18;4.12;17;;;;;;;;3751282S;07731447E;;0;;;
HAR03;2018;12;2;16;4;5;;;;;;;;;;;;1;;;;4.12;0;;;
HAR03;2018;12;2;16;4;6;;;;;;;;;;;;1;;;;4.12;0;;;
HAR03;2018;12;2;16;8;59;;;;;;;;;;;;1;;;;4.12;0;;;
HAR03;2018;12;2;16;9;0;;;;;;;;;;;;1;;;;4.12;0;;;
HAR03;2018;12;2;16;13;55;;;;;;;;;;;;1;;;;4.12;0;;;
HAR03;2018;12;2;16;13;56;;;;;;;;;;;;1;;;;4.12;0;;;
HAR03;2018;12;2;16;14;0;-37.854733;77.524133;0.4;15;4.12;16.5;;;;;;;;3751284S;07731448E;;0;;;
HAR03;2018;12;2;16;14;3;;;;;;;;;;;;1;;;;4.12;0;;;
HAR03;2018;12;2;16;14;4;;;;;;;;;;;;1;;;;4.12;0;;;
HAR03;2018;12;2;16;14;5;;;;;;;;;;;;1;;;;4.12;0;;;
HAR03;2018;12;2;16;19;25;;;;;;;;;;;;1;;;;4.12;0;;;
HAR03;2018;12;2;16;19;26;;;;;;;;;;;;1;;;;4.12;0;;;
HAR03;2018;12;2;16;24;19;;;;;;;;;;;;1;;;;4.12;0;;;
HAR03;2018;12;2;16;24;20;;;;;;;;;;;;1;;;;4.12;0;;;
HAR03;2018;12;2;16;29;0;-37.854350;77.524200;0.1;24;4.12;16.5;;;;;;;;3751261S;07731452E;;0;;;
HAR03;2018;12;2;16;29;15;;;;;;;;;;;;1;;;;4.12;0;;;
HAR03;2018;12;2;16;29;16;;;;;;;;;;;;1;;;;4.12;0;;;
HAR03;2018;12;2;16;29;23;;;;;;;;;;;;1;;;;4.12;0;;;
HAR03;2018;12;2;16;29;24;;;;;;;;;;;;1;;;;4.12;0;;;
HAR03;2018;12;2;16;29;25;;;;;;;;;;;;1;;;;4.12;0;;;
HAR03;2018;12;2;16;34;57;;;;;;;;;;;;1;;;;4.12;0;;;
HAR03;2018;12;2;16;34;58;;;;;;;;;;;;1;;;;4.12;0;;;
HAR03;2018;12;2;16;39;51;;;;;;;;;;;;1;;;;4.12;0;;;
HAR03;2018;12;2;16;39;52;;;;;;;;;;;;1;;;;4.12;0;;;
HAR03;2018;12;2;16;44;47;;;;;;;;;;;;1;;;;4.12;0;;;
HAR03;2018;12;2;16;44;48;;;;;;;;;;;;1;;;;4.12;0;;;
HAR03;2018;12;2;16;44;55;;;;;;;;;;;;1;;;;4.12;0;;;
HAR03;2018;12;2;16;44;56;;;;;;;;;;;;1;;;;4.12;0;;;
HAR03;2018;12;2;16;44;57;;;;;;;;;;;;1;;;;4.12;0;;;
HAR03;2018;12;2;16;45;0;-37.854367;77.524217;0.4;14;4.12;16;;;;;;;;3751262S;07731453E;;0;;;
HAR03;2018;12;2;16;50;16;;;;;;;;;;;;1;;;;4.12;0;;;
HAR03;2018;12;2;16;50;17;;;;;;;;;;;;1;;;;4.12;0;;;
HAR03;2018;12;2;16;55;12;;;;;;;;;;;;1;;;;4.12;0;;;
HAR03;2018;12;2;16;55;13;;;;;;;;;;;;1;;;;4.12;0;;;
HAR03;2018;12;2;17;0;7;;;;;;;;;;;;1;;;;4.12;0;;;
HAR03;2018;12;2;17;0;8;;;;;;;;;;;;1;;;;4.12;0;;;
HAR03;2018;12;2;17;0;15;;;;;;;;;;;;1;;;;4.12;0;;;
HAR03;2018;12;2;17;0;16;;;;;;;;;;;;1;;;;4.12;0;;;
HAR03;2018;12;2;17;0;17;;;;;;;;;;;;1;;;;4.12;0;;;
HAR03;2018;12;2;17;1;0;-37.854650;77.524183;0.5;56;4.12;14.5;;;;;;;;3751279S;07731451E;;0;;;
HAR03;2018;12;2;17;6;17;;;;;;;;;;;;1;;;;4.12;0;;;
HAR03;2018;12;2;17;6;18;;;;;;;;;;;;1;;;;4.12;0;;;
HAR03;2018;12;2;17;11;12;;;;;;;;;;;;1;;;;4.12;0;;;
HAR03;2018;12;2;17;11;13;;;;;;;;;;;;1;;;;4.12;0;;;
HAR03;2018;12;2;17;16;0;-37.854667;77.524100;1.2;13;4.12;15;;;;;;;;3751280S;07731446E;;0;;;
HAR03;2018;12;2;17;16;8;;;;;;;;;;;;1;;;;4.12;0;;;
HAR03;2018;12;2;17;16;9;;;;;;;;;;;;1;;;;4.12;0;;;
HAR03;2018;12;2;17;16;16;;;;;;;;;;;;1;;;;4.12;0;;;
HAR03;2018;12;2;17;16;17;;;;;;;;;;;;1;;;;4.12;0;;;
HAR03;2018;12;2;17;16;18;;;;;;;;;;;;1;;;;4.12;0;;;
HAR03;2018;12;2;17;21;37;;;;;;;;;;;;1;;;;4.12;0;;;
HAR03;2018;12;2;17;21;38;;;;;;;;;;;;1;;;;4.12;0;;;
HAR03;2018;12;2;17;26;31;;;;;;;;;;;;1;;;;4.12;0;;;
HAR03;2018;12;2;17;26;32;;;;;;;;;;;;1;;;;4.12;0;;;
HAR03;2018;12;2;17;31;0;-37.854667;77.524300;0.5;12;4.12;16.5;;;;;;;;3751280S;07731458E;;0;;;
HAR03;2018;12;2;17;31;27;;;;;;;;;;;;1;;;;4.12;0;;;
HAR03;2018;12;2;17;31;28;;;;;;;;;;;;1;;;;4.12;0;;;
HAR03;2018;12;2;17;31;35;;;;;;;;;;;;1;;;;4.12;0;;;
HAR03;2018;12;2;17;31;36;;;;;;;;;;;;1;;;;4.12;0;;;
HAR03;2018;12;2;17;31;37;;;;;;;;;;;;1;;;;4.12;0;;;
HAR03;2018;12;2;17;36;55;;;;;;;;;;;;1;;;;4.12;0;;;
HAR03;2018;12;2;17;36;56;;;;;;;;;;;;1;;;;4.12;0;;;
HAR03;2018;12;2;17;41;49;;;;;;;;;;;;1;;;;4.12;0;;;
HAR03;2018;12;2;17;41;50;;;;;;;;;;;;1;;;;4.12;0;;;
HAR03;2018;12;2;17;46;45;;;;;;;;;;;;1;;;;4.12;0;;;
HAR03;2018;12;2;17;46;46;;;;;;;;;;;;1;;;;4.12;0;;;
HAR03;2018;12;2;17;46;53;;;;;;;;;;;;1;;;;4.12;0;;;
HAR03;2018;12;2;17;46;54;;;;;;;;;;;;1;;;;4.12;0;;;
HAR03;2018;12;2;17;46;55;;;;;;;;;;;;1;;;;4.12;0;;;
HAR03;2018;12;2;17;47;0;-37.854733;77.524200;0.1;29;4.12;17;;;;;;;;3751284S;07731452E;;0;;;
HAR03;2018;12;2;17;52;29;;;;;;;;;;;;1;;;;4.12;0;;;
HAR03;2018;12;2;17;52;30;;;;;;;;;;;;1;;;;4.11;0;;;
HAR03;2018;12;2;17;57;24;;;;;;;;;;;;1;;;;4.12;0;;;
HAR03;2018;12;2;17;57;25;;;;;;;;;;;;1;;;;4.11;0;;;
HAR03;2018;12;2;18;2;0;-37.854917;77.524100;2.0;13;4.12;16.5;;;;;;;;3751295S;07731446E;;0;;;
HAR03;2018;12;2;18;2;20;;;;;;;;;;;;1;;;;4.12;0;;;
HAR03;2018;12;2;18;2;21;;;;;;;;;;;;1;;;;4.11;0;;;
HAR03;2018;12;2;18;2;28;;;;;;;;;;;;1;;;;4.12;0;;;
HAR03;2018;12;2;18;2;29;;;;;;;;;;;;1;;;;4.11;0;;;
HAR03;2018;12;2;18;2;30;;;;;;;;;;;;1;;;;4.12;0;;;
HAR03;2018;12;2;18;7;48;;;;;;;;;;;;1;;;;4.12;0;;;
HAR03;2018;12;2;18;7;49;;;;;;;;;;;;1;;;;4.11;0;;;
HAR03;2018;12;2;18;12;43;;;;;;;;;;;;1;;;;4.12;0;;;
HAR03;2018;12;2;18;12;44;;;;;;;;;;;;1;;;;4.11;0;;;
HAR03;2018;12;2;18;17;39;;;;;;;;;;;;1;;;;4.12;0;;;
HAR03;2018;12;2;18;17;40;;;;;;;;;;;;1;;;;4.11;0;;;
HAR03;2018;12;2;18;17;47;;;;;;;;;;;;1;;;;4.11;0;;;
HAR03;2018;12;2;18;17;48;;;;;;;;;;;;1;;;;4.11;0;;;
HAR03;2018;12;2;18;17;49;;;;;;;;;;;;1;;;;4.11;0;;;
HAR03;2018;12;2;18;18;0;-37.854700;77.524050;0.1;18;4.11;16.5;;;;;;;;3751282S;07731443E;;0;;;
HAR03;2018;12;2;18;23;12;;;;;;;;;;;;1;;;;4.11;0;;;
HAR03;2018;12;2;18;23;13;;;;;;;;;;;;1;;;;4.11;0;;;
HAR03;2018;12;2;18;28;7;;;;;;;;;;;;1;;;;4.11;0;;;
HAR03;2018;12;2;18;28;8;;;;;;;;;;;;1;;;;4.11;0;;;
HAR03;2018;12;2;18;33;0;-37.854733;77.524033;0.1;27;4.11;16.5;;;;;;;;3751284S;07731442E;;0;;;
HAR03;2018;12;2;18;33;3;;;;;;;;;;;;1;;;;4.11;0;;;
HAR03;2018;12;2;18;33;4;;;;;;;;;;;;1;;;;4.11;0;;;
HAR03;2018;12;2;18;33;12;;;;;;;;;;;;1;;;;4.11;0;;;
HAR03;2018;12;2;18;33;13;;;;;;;;;;;;1;;;;4.11;0;;;
HAR03;2018;12;2;18;33;14;;;;;;;;;;;;1;;;;4.11;0;;;
HAR03;2018;12;2;18;38;49;;;;;;;;;;;;1;;;;4.11;0;;;
HAR03;2018;12;2;18;38;50;;;;;;;;;;;;1;;;;4.11;0;;;
HAR03;2018;12;2;18;43;43;;;;;;;;;;;;1;;;;4.11;0;;;
HAR03;2018;12;2;18;43;44;;;;;;;;;;;;1;;;;4.11;0;;;
HAR03;2018;12;2;18;48;39;;;;;;;;;;;;1;;;;4.11;0;;;
HAR03;2018;12;2;18;48;40;;;;;;;;;;;;1;;;;4.11;0;;;
HAR03;2018;12;2;18;48;47;;;;;;;;;;;;1;;;;4.11;0;;;
HAR03;2018;12;2;18;48;48;;;;;;;;;;;;1;;;;4.11;0;;;
HAR03;2018;12;2;18;48;49;;;;;;;;;;;;1;;;;4.11;0;;;
HAR03;2018;12;2;18;49;0;-37.854617;77.524133;0.3;19;4.11;16.5;;;;;;;;3751277S;07731448E;;0;;;
HAR03;2018;12;2;18;54;13;;;;;;;;;;;;1;;;;4.11;0;;;
HAR03;2018;12;2;18;54;14;;;;;;;;;;;;1;;;;4.11;0;;;
HAR03;2018;12;2;18;59;8;;;;;;;;;;;;1;;;;4.11;0;;;
HAR03;2018;12;2;18;59;9;;;;;;;;;;;;1;;;;4.11;0;;;
HAR03;2018;12;2;19;4;4;;;;;;;;;;;;1;;;;4.11;0;;;
HAR03;2018;12;2;19;4;5;;;;;;;;;;;;1;;;;4.11;0;;;
HAR03;2018;12;2;19;4;12;;;;;;;;;;;;1;;;;4.11;0;;;
HAR03;2018;12;2;19;4;14;;;;;;;;;;;;1;;;;4.11;0;;;
HAR03;2018;12;2;19;4;15;;;;;;;;;;;;1;;;;4.11;0;;;
HAR03;2018;12;2;19;5;0;-37.854700;77.524083;0.4;44;4.11;15;;;;;;;;3751282S;07731445E;;0;;;
HAR03;2018;12;2;19;10;4;;;;;;;;;;;;1;;;;4.1;0;;;
HAR03;2018;12;2;19;10;5;;;;;;;;;;;;1;;;;4.1;0;;;
HAR03;2018;12;2;19;14;58;;;;;;;;;;;;1;;;;4.1;0;;;
HAR03;2018;12;2;19;14;59;;;;;;;;;;;;1;;;;4.1;0;;;
HAR03;2018;12;2;19;19;54;;;;;;;;;;;;1;;;;4.1;0;;;
HAR03;2018;12;2;19;19;55;;;;;;;;;;;;1;;;;4.1;0;;;
HAR03;2018;12;2;19;20;2;;;;;;;;;;;;1;;;;4.1;0;;;
HAR03;2018;12;2;19;20;3;;;;;;;;;;;;1;;;;4.1;0;;;
HAR03;2018;12;2;19;20;4;;;;;;;;;;;;1;;;;4.1;0;;;
HAR03;2018;12;2;19;22;0;-37.854600;77.524133;0.0;129;4.1;16;;;;;;;;3751276S;07731448E;;0;;;
HAR03;2018;12;2;19;27;20;;;;;;;;;;;;1;;;;4.09;0;;;
HAR03;2018;12;2;19;27;21;;;;;;;;;;;;1;;;;4.09;0;;;
HAR03;2018;12;2;19;32;14;;;;;;;;;;;;1;;;;4.09;0;;;
HAR03;2018;12;2;19;32;15;;;;;;;;;;;;1;;;;4.09;0;;;
HAR03;2018;12;2;19;37;0;-37.854567;77.524150;0.3;18;4.09;16.5;;;;;;;;3751274S;07731449E;;0;;;
HAR03;2018;12;2;19;37;10;;;;;;;;;;;;1;;;;4.1;0;;;
HAR03;2018;12;2;19;37;11;;;;;;;;;;;;1;;;;4.09;0;;;
HAR03;2018;12;2;19;37;18;;;;;;;;;;;;1;;;;4.09;0;;;
HAR03;2018;12;2;19;37;19;;;;;;;;;;;;1;;;;4.09;0;;;
HAR03;2018;12;2;19;37;20;;;;;;;;;;;;1;;;;4.09;0;;;
HAR03;2018;12;2;19;42;44;;;;;;;;;;;;1;;;;4.09;0;;;
HAR03;2018;12;2;19;42;45;;;;;;;;;;;;1;;;;4.09;0;;;
HAR03;2018;12;2;19;47;39;;;;;;;;;;;;1;;;;4.09;0;;;
HAR03;2018;12;2;19;47;40;;;;;;;;;;;;1;;;;4.09;0;;;
HAR03;2018;12;2;19;52;35;;;;;;;;;;;;1;;;;4.09;0;;;
HAR03;2018;12;2;19;52;36;;;;;;;;;;;;1;;;;4.09;0;;;
HAR03;2018;12;2;19;52;43;;;;;;;;;;;;1;;;;4.09;0;;;
HAR03;2018;12;2;19;52;44;;;;;;;;;;;;1;;;;4.09;0;;;
HAR03;2018;12;2;19;52;45;;;;;;;;;;;;1;;;;4.09;0;;;
HAR03;2018;12;2;19;53;0;-37.854617;77.524250;0.0;27;4.09;16.5;;;;;;;;3751277S;07731455E;;0;;;
HAR03;2018;12;2;19;58;17;;;;;;;;;;;;1;;;;4.09;0;;;
HAR03;2018;12;2;19;58;18;;;;;;;;;;;;1;;;;4.09;0;;;
HAR03;2018;12;2;20;3;12;;;;;;;;;;;;1;;;;4.09;0;;;
HAR03;2018;12;2;20;3;13;;;;;;;;;;;;1;;;;4.09;0;;;
HAR03;2018;12;2;20;8;0;-37.854583;77.524183;1.5;8;4.09;17;;;;;;;;3751275S;07731451E;;0;;;
HAR03;2018;12;2;20;8;8;;;;;;;;;;;;1;;;;4.09;0;;;
HAR03;2018;12;2;20;8;9;;;;;;;;;;;;1;;;;4.09;0;;;
HAR03;2018;12;2;20;8;16;;;;;;;;;;;;1;;;;4.09;0;;;
HAR03;2018;12;2;20;8;17;;;;;;;;;;;;1;;;;4.09;0;;;
HAR03;2018;12;2;20;8;18;;;;;;;;;;;;1;;;;4.09;0;;;
HAR03;2018;12;2;20;13;31;;;;;;;;;;;;1;;;;4.09;0;;;
HAR03;2018;12;2;20;13;32;;;;;;;;;;;;1;;;;4.09;0;;;
HAR03;2018;12;2;20;18;26;;;;;;;;;;;;1;;;;4.09;0;;;
HAR03;2018;12;2;20;18;27;;;;;;;;;;;;1;;;;4.09;0;;;
HAR03;2018;12;2;20;23;22;;;;;;;;;;;;1;;;;4.09;0;;;
HAR03;2018;12;2;20;23;23;;;;;;;;;;;;1;;;;4.09;0;;;
HAR03;2018;12;2;20;23;31;;;;;;;;;;;;1;;;;4.09;0;;;
HAR03;2018;12;2;20;23;32;;;;;;;;;;;;1;;;;4.09;0;;;
HAR03;2018;12;2;20;23;33;;;;;;;;;;;;1;;;;4.09;0;;;
HAR03;2018;12;2;20;24;0;-37.854600;77.524150;0.4;22;4.09;15;;;;;;;;3751276S;07731449E;;0;;;
HAR03;2018;12;2;20;29;1;;;;;;;;;;;;1;;;;4.09;0;;;
HAR03;2018;12;2;20;29;2;;;;;;;;;;;;1;;;;4.09;0;;;
HAR03;2018;12;2;20;33;56;;;;;;;;;;;;1;;;;4.09;0;;;
HAR03;2018;12;2;20;33;57;;;;;;;;;;;;1;;;;4.09;0;;;
HAR03;2018;12;2;20;38;52;;;;;;;;;;;;1;;;;4.09;0;;;
HAR03;2018;12;2;20;38;53;;;;;;;;;;;;1;;;;4.09;0;;;
HAR03;2018;12;2;20;39;0;-37.854817;77.524133;2.0;50;4.09;15.5;;;;;;;;3751289S;07731448E;;0;;;
HAR03;2018;12;2;20;39;0;;;;;;;;;;;;1;;;;4.09;0;;;
HAR03;2018;12;2;20;39;1;;;;;;;;;;;;1;;;;4.09;0;;;
HAR03;2018;12;2;20;39;2;;;;;;;;;;;;1;;;;4.09;0;;;
HAR03;2018;12;2;20;44;57;;;;;;;;;;;;1;;;;4.08;0;;;
HAR03;2018;12;2;20;49;51;;;;;;;;;;;;1;;;;4.08;0;;;
HAR03;2018;12;2;20;49;52;;;;;;;;;;;;1;;;;4.08;0;;;
HAR03;2018;12;2;20;54;47;;;;;;;;;;;;1;;;;4.08;0;;;
HAR03;2018;12;2;20;54;48;;;;;;;;;;;;1;;;;4.08;0;;;
HAR03;2018;12;2;20;54;55;;;;;;;;;;;;1;;;;4.08;0;;;
HAR03;2018;12;2;20;54;56;;;;;;;;;;;;1;;;;4.08;0;;;
HAR03;2018;12;2;20;54;57;;;;;;;;;;;;1;;;;4.08;0;;;
HAR03;2018;12;2;20;55;0;-37.854817;77.524000;0.6;22;4.08;15.5;;;;;;;;3751289S;07731440E;;0;;;
HAR03;2018;12;2;21;0;24;;;;;;;;;;;;1;;;;4.08;0;;;
HAR03;2018;12;2;21;0;25;;;;;;;;;;;;1;;;;4.08;0;;;
HAR03;2018;12;2;21;5;19;;;;;;;;;;;;1;;;;4.08;0;;;
HAR03;2018;12;2;21;5;20;;;;;;;;;;;;1;;;;4.08;0;;;
HAR03;2018;12;2;21;10;0;-37.854750;77.524083;0.8;6;4.08;14.5;;;;;;;;3751285S;07731445E;;0;;;
HAR03;2018;12;2;21;10;15;;;;;;;;;;;;1;;;;4.08;0;;;
HAR03;2018;12;2;21;10;16;;;;;;;;;;;;1;;;;4.08;0;;;
HAR03;2018;12;2;21;10;23;;;;;;;;;;;;1;;;;4.08;0;;;
HAR03;2018;12;2;21;10;24;;;;;;;;;;;;1;;;;4.08;0;;;
HAR03;2018;12;2;21;10;26;;;;;;;;;;;;1;;;;4.08;0;;;
HAR03;2018;12;2;21;15;38;;;;;;;;;;;;1;;;;4.08;0;;;
HAR03;2018;12;2;21;15;39;;;;;;;;;;;;1;;;;4.08;0;;;
HAR03;2018;12;2;21;20;33;;;;;;;;;;;;1;;;;4.08;0;;;
HAR03;2018;12;2;21;20;34;;;;;;;;;;;;1;;;;4.08;0;;;
HAR03;2018;12;2;21;25;29;;;;;;;;;;;;1;;;;4.08;0;;;
HAR03;2018;12;2;21;25;30;;;;;;;;;;;;1;;;;4.08;0;;;
HAR03;2018;12;2;21;25;37;;;;;;;;;;;;1;;;;4.08;0;;;
HAR03;2018;12;2;21;25;39;;;;;;;;;;;;1;;;;4.08;0;;;
HAR03;2018;12;2;21;25;40;;;;;;;;;;;;1;;;;4.08;0;;;
HAR03;2018;12;2;21;26;0;-37.854350;77.524333;0.7;16;4.08;15;;;;;;;;3751261S;07731460E;;0;;;
HAR03;2018;12;2;21;31;3;;;;;;;;;;;;1;;;;4.08;0;;;
HAR03;2018;12;2;21;31;4;;;;;;;;;;;;1;;;;4.08;0;;;
HAR03;2018;12;2;21;35;57;;;;;;;;;;;;1;;;;4.08;0;;;
HAR03;2018;12;2;21;35;58;;;;;;;;;;;;1;;;;4.08;0;;;
HAR03;2018;12;2;21;40;53;;;;;;;;;;;;1;;;;4.08;0;;;
HAR03;2018;12;2;21;40;54;;;;;;;;;;;;1;;;;4.08;0;;;
HAR03;2018;12;2;21;41;0;-37.854717;77.524033;0.5;17;4.08;15.5;;;;;;;;3751283S;07731442E;;0;;;
HAR03;2018;12;2;21;41;1;;;;;;;;;;;;1;;;;4.08;0;;;
HAR03;2018;12;2;21;41;3;;;;;;;;;;;;1;;;;4.08;0;;;
HAR03;2018;12;2;21;41;4;;;;;;;;;;;;1;;;;4.08;0;;;
HAR03;2018;12;2;21;46;25;;;;;;;;;;;;1;;;;4.08;0;;;
HAR03;2018;12;2;21;46;26;;;;;;;;;;;;1;;;;4.08;0;;;
HAR03;2018;12;2;21;51;20;;;;;;;;;;;;1;;;;4.08;0;;;
HAR03;2018;12;2;21;51;21;;;;;;;;;;;;1;;;;4.08;0;;;
HAR03;2018;12;2;21;56;0;-37.854750;77.524067;0.3;19;4.08;17;;;;;;;;3751285S;07731444E;;0;;;
HAR03;2018;12;2;21;56;16;;;;;;;;;;;;1;;;;4.08;0;;;
HAR03;2018;12;2;21;56;17;;;;;;;;;;;;1;;;;4.08;0;;;
HAR03;2018;12;2;21;56;24;;;;;;;;;;;;1;;;;4.08;0;;;
HAR03;2018;12;2;21;56;25;;;;;;;;;;;;1;;;;4.08;0;;;
HAR03;2018;12;2;21;56;26;;;;;;;;;;;;1;;;;4.08;0;;;
HAR03;2018;12;2;22;1;50;;;;;;;;;;;;1;;;;4.08;0;;;
HAR03;2018;12;2;22;1;51;;;;;;;;;;;;1;;;;4.08;0;;;
HAR03;2018;12;2;22;6;45;;;;;;;;;;;;1;;;;4.08;0;;;
HAR03;2018;12;2;22;6;46;;;;;;;;;;;;1;;;;4.08;0;;;
HAR03;2018;12;2;22;11;41;;;;;;;;;;;;1;;;;4.08;0;;;
HAR03;2018;12;2;22;11;42;;;;;;;;;;;;1;;;;4.08;0;;;
HAR03;2018;12;2;22;11;49;;;;;;;;;;;;1;;;;4.08;0;;;
HAR03;2018;12;2;22;11;50;;;;;;;;;;;;1;;;;4.08;0;;;
HAR03;2018;12;2;22;11;51;;;;;;;;;;;;1;;;;4.08;0;;;
HAR03;2018;12;2;22;12;0;-37.854650;77.524150;0.3;29;4.08;16.5;;;;;;;;3751279S;07731449E;;0;;;
HAR03;2018;12;2;22;17;25;;;;;;;;;;;;1;;;;4.08;0;;;
HAR03;2018;12;2;22;17;26;;;;;;;;;;;;1;;;;4.08;0;;;
HAR03;2018;12;2;22;22;20;;;;;;;;;;;;1;;;;4.08;0;;;
HAR03;2018;12;2;22;22;21;;;;;;;;;;;;1;;;;4.08;0;;;
HAR03;2018;12;2;22;27;16;;;;;;;;;;;;1;;;;4.08;0;;;
HAR03;2018;12;2;22;27;17;;;;;;;;;;;;1;;;;4.08;0;;;
HAR03;2018;12;2;22;27;24;;;;;;;;;;;;1;;;;4.08;0;;;
HAR03;2018;12;2;22;27;25;;;;;;;;;;;;1;;;;4.08;0;;;
HAR03;2018;12;2;22;27;26;;;;;;;;;;;;1;;;;4.08;0;;;
HAR03;2018;12;2;22;28;0;-37.855217;77.524250;2.8;34;4.08;16.5;;;;;;;;3751313S;07731455E;;0;;;
HAR03;2018;12;2;22;33;6;;;;;;;;;;;;1;;;;4.08;0;;;
HAR03;2018;12;2;22;33;7;;;;;;;;;;;;1;;;;4.08;0;;;
HAR03;2018;12;2;22;38;0;;;;;;;;;;;;1;;;;4.08;0;;;
HAR03;2018;12;2;22;38;1;;;;;;;;;;;;1;;;;4.08;0;;;
HAR03;2018;12;2;22;42;56;;;;;;;;;;;;1;;;;4.08;0;;;
HAR03;2018;12;2;22;42;59;;;;;;;;;;;;1;;;;4.08;0;;;
HAR03;2018;12;2;22;43;0;-37.856083;77.513967;32.;6;4.08;14;;;;;;;;3751365S;07730838E;;0;;;
HAR03;2018;12;2;22;43;4;;;;;;;;;;;;1;;;;4.08;0;;;
HAR03;2018;12;2;22;43;5;;;;;;;;;;;;1;;;;4.08;0;;;
HAR03;2018;12;2;22;43;6;;;;;;;;;;;;1;;;;4.08;0;;;
HAR03;2018;12;2;22;58;0;-37.859183;77.497050;0.4;8;4.08;13;;;;;;;;3751551S;07729823E;;0;;;
HAR03;2018;12;2;23;3;34;;;;;;;;;;;;1;;;;4.08;0;;;
HAR03;2018;12;2;23;3;35;;;;;;;;;;;;1;;;;4.08;0;;;
HAR03;2018;12;2;23;8;29;;;;;;;;;;;;1;;;;4.08;0;;;
HAR03;2018;12;2;23;13;24;;;;;;;;;;;;1;;;;4.08;0;;;
HAR03;2018;12;2;23;13;25;;;;;;;;;;;;1;;;;4.08;0;;;
HAR03;2018;12;2;23;13;32;;;;;;;;;;;;1;;;;4.08;0;;;
HAR03;2018;12;2;23;13;33;;;;;;;;;;;;1;;;;4.08;0;;;
HAR03;2018;12;2;23;13;34;;;;;;;;;;;;1;;;;4.08;0;;;
HAR03;2018;12;2;23;15;0;-37.854717;77.524133;1.2;83;4.08;11.5;;;;;;;;3751283S;07731448E;;0;;;
HAR03;2018;12;2;23;20;1;;;;;;;;;;;;1;;;;4.08;0;;;
HAR03;2018;12;2;23;20;2;;;;;;;;;;;;1;;;;4.08;0;;;
HAR03;2018;12;2;23;24;55;;;;;;;;;;;;1;;;;4.08;0;;;
HAR03;2018;12;2;23;24;56;;;;;;;;;;;;1;;;;4.08;0;;;
HAR03;2018;12;2;23;29;51;;;;;;;;;;;;1;;;;4.08;0;;;
HAR03;2018;12;2;23;29;52;;;;;;;;;;;;1;;;;4.08;0;;;
HAR03;2018;12;2;23;29;59;;;;;;;;;;;;1;;;;4.08;0;;;
HAR03;2018;12;2;23;30;0;-37.854817;77.524200;1.5;13;4.08;13.5;;;;;;;;3751289S;07731452E;;0;;;
HAR03;2018;12;2;23;30;0;;;;;;;;;;;;1;;;;4.08;0;;;
HAR03;2018;12;2;23;30;1;;;;;;;;;;;;1;;;;4.08;0;;;
HAR03;2018;12;2;23;35;20;;;;;;;;;;;;1;;;;4.08;0;;;
HAR03;2018;12;2;23;35;21;;;;;;;;;;;;1;;;;4.08;0;;;
HAR03;2018;12;2;23;40;14;;;;;;;;;;;;1;;;;4.08;0;;;
HAR03;2018;12;2;23;40;15;;;;;;;;;;;;1;;;;4.08;0;;;
HAR03;2018;12;2;23;45;0;-37.854767;77.524167;0.5;12;4.08;14;;;;;;;;3751286S;07731450E;;0;;;
HAR03;2018;12;2;23;45;10;;;;;;;;;;;;1;;;;4.08;0;;;
HAR03;2018;12;2;23;45;11;;;;;;;;;;;;1;;;;4.08;0;;;
HAR03;2018;12;2;23;45;18;;;;;;;;;;;;1;;;;4.08;0;;;
HAR03;2018;12;2;23;45;19;;;;;;;;;;;;1;;;;4.08;0;;;
HAR03;2018;12;2;23;45;20;;;;;;;;;;;;1;;;;4.08;0;;;
HAR03;2018;12;2;23;50;37;;;;;;;;;;;;1;;;;4.08;0;;;
HAR03;2018;12;2;23;50;39;;;;;;;;;;;;1;;;;4.08;0;;;
HAR03;2018;12;2;23;55;33;;;;;;;;;;;;1;;;;4.08;0;;;
HAR03;2018;12;3;0;0;28;;;;;;;;;;;;1;;;;4.08;0;;;
HAR03;2018;12;3;0;0;29;;;;;;;;;;;;1;;;;4.08;0;;;
HAR03;2018;12;3;0;0;36;;;;;;;;;;;;1;;;;4.08;0;;;
HAR03;2018;12;3;0;0;37;;;;;;;;;;;;1;;;;4.08;0;;;
HAR03;2018;12;3;0;0;38;;;;;;;;;;;;1;;;;4.08;0;;;
HAR03;2018;12;3;0;1;0;-37.854867;77.524433;0.7;20;4.08;14.5;;;;;;;;3751292S;07731466E;;0;;;
HAR03;2018;12;3;0;6;3;;;;;;;;;;;;1;;;;4.08;0;;;
HAR03;2018;12;3;0;6;4;;;;;;;;;;;;1;;;;4.08;0;;;
HAR03;2018;12;3;0;10;58;;;;;;;;;;;;1;;;;4.08;0;;;
HAR03;2018;12;3;0;10;59;;;;;;;;;;;;1;;;;4.08;0;;;
HAR03;2018;12;3;0;15;54;;;;;;;;;;;;1;;;;4.08;0;;;
HAR03;2018;12;3;0;15;55;;;;;;;;;;;;1;;;;4.08;0;;;
HAR03;2018;12;3;0;16;2;;;;;;;;;;;;1;;;;4.08;0;;;
HAR03;2018;12;3;0;16;3;;;;;;;;;;;;1;;;;4.08;0;;;
HAR03;2018;12;3;0;16;4;;;;;;;;;;;;1;;;;4.08;0;;;
HAR03;2018;12;3;0;17;0;-37.854650;77.524167;0.3;98;4.08;17;;;;;;;;3751279S;07731450E;;0;;;
HAR03;2018;12;3;0;22;47;;;;;;;;;;;;1;;;;4.07;0;;;
HAR03;2018;12;3;0;22;48;;;;;;;;;;;;1;;;;4.07;0;;;
HAR03;2018;12;3;0;27;42;;;;;;;;;;;;1;;;;4.07;0;;;
HAR03;2018;12;3;0;27;43;;;;;;;;;;;;1;;;;4.07;0;;;
HAR03;2018;12;3;0;32;38;;;;;;;;;;;;1;;;;4.07;0;;;
HAR03;2018;12;3;0;32;39;;;;;;;;;;;;1;;;;4.07;0;;;
HAR03;2018;12;3;0;32;46;;;;;;;;;;;;1;;;;4.07;0;;;
HAR03;2018;12;3;0;32;47;;;;;;;;;;;;1;;;;4.07;0;;;
HAR03;2018;12;3;0;32;48;;;;;;;;;;;;1;;;;4.07;0;;;
HAR03;2018;12;3;0;33;0;-37.854467;77.523883;1.1;55;4.07;16.5;;;;;;;;3751268S;07731433E;;0;;;
HAR03;2018;12;3;0;38;48;;;;;;;;;;;;1;;;;4.07;0;;;
HAR03;2018;12;3;0;38;49;;;;;;;;;;;;1;;;;4.07;0;;;
HAR03;2018;12;3;0;43;43;;;;;;;;;;;;1;;;;4.07;0;;;
HAR03;2018;12;3;0;43;44;;;;;;;;;;;;1;;;;4.07;0;;;
HAR03;2018;12;3;0;48;39;;;;;;;;;;;;1;;;;4.07;0;;;
HAR03;2018;12;3;0;48;40;;;;;;;;;;;;1;;;;4.07;0;;;
HAR03;2018;12;3;0;48;47;;;;;;;;;;;;1;;;;4.07;0;;;
HAR03;2018;12;3;0;48;48;;;;;;;;;;;;1;;;;4.07;0;;;
HAR03;2018;12;3;0;48;49;;;;;;;;;;;;1;;;;4.07;0;;;
HAR03;2018;12;3;0;49;0;-37.854500;77.523650;1.9;14;4.07;16.5;;;;;;;;3751270S;07731419E;;0;;;
HAR03;2018;12;3;0;54;8;;;;;;;;;;;;1;;;;4.07;0;;;
HAR03;2018;12;3;0;54;9;;;;;;;;;;;;1;;;;4.06;0;;;
HAR03;2018;12;3;0;59;4;;;;;;;;;;;;1;;;;4.07;0;;;
HAR03;2018;12;3;0;59;5;;;;;;;;;;;;1;;;;4.06;0;;;
HAR03;2018;12;3;1;3;59;;;;;;;;;;;;1;;;;4.07;0;;;
HAR03;2018;12;3;1;4;0;;;;;;;;;;;;1;;;;4.06;0;;;
HAR03;2018;12;3;1;4;7;;;;;;;;;;;;1;;;;4.07;0;;;
HAR03;2018;12;3;1;4;8;;;;;;;;;;;;1;;;;4.07;0;;;
HAR03;2018;12;3;1;4;9;;;;;;;;;;;;1;;;;4.06;0;;;
HAR03;2018;12;3;1;5;0;-37.854567;77.524100;0.7;46;4.06;16;;;;;;;;3751274S;07731446E;;0;;;
HAR03;2018;12;3;1;10;0;;;;;;;;;;;;1;;;;4.06;0;;;
HAR03;2018;12;3;1;10;1;;;;;;;;;;;;1;;;;4.06;0;;;
HAR03;2018;12;3;1;14;55;;;;;;;;;;;;1;;;;4.06;0;;;
HAR03;2018;12;3;1;14;56;;;;;;;;;;;;1;;;;4.06;0;;;
HAR03;2018;12;3;1;19;51;;;;;;;;;;;;1;;;;4.06;0;;;
HAR03;2018;12;3;1;19;52;;;;;;;;;;;;1;;;;4.06;0;;;
HAR03;2018;12;3;1;19;59;;;;;;;;;;;;1;;;;4.06;0;;;
HAR03;2018;12;3;1;20;0;;;;;;;;;;;;1;;;;4.06;0;;;
HAR03;2018;12;3;1;20;0;-37.854800;77.523600;20.;6;4.06;14.5;;;;;;;;3751288S;07731416E;;0;;;
HAR03;2018;12;3;1;20;1;;;;;;;;;;;;1;;;;4.06;0;;;
HAR03;2018;12;3;1;25;12;;;;;;;;;;;;1;;;;4.06;0;;;
HAR03;2018;12;3;1;25;13;;;;;;;;;;;;1;;;;4.06;0;;;
HAR03;2018;12;3;1;35;0;-37.866633;77.511400;1.7;8;4.07;14;;;;;;;;3751998S;07730684E;;0;;;
HAR03;2018;12;3;1;45;23;;;;;;;;;;;;1;;;;4.07;0;;;
HAR03;2018;12;3;1;45;24;;;;;;;;;;;;1;;;;4.07;0;;;
HAR03;2018;12;3;1;50;0;-37.854767;77.524000;0.4;12;4.07;12;;;;;;;;3751286S;07731440E;;0;;;
HAR03;2018;12;3;1;50;17;;;;;;;;;;;;1;;;;4.07;0;;;
HAR03;2018;12;3;1;50;18;;;;;;;;;;;;1;;;;4.07;0;;;
HAR03;2018;12;3;1;50;25;;;;;;;;;;;;1;;;;4.07;0;;;
HAR03;2018;12;3;1;50;26;;;;;;;;;;;;1;;;;4.07;0;;;
HAR03;2018;12;3;1;50;27;;;;;;;;;;;;1;;;;4.07;0;;;
HAR03;2018;12;3;1;55;44;;;;;;;;;;;;1;;;;4.07;0;;;
HAR03;2018;12;3;1;55;45;;;;;;;;;;;;1;;;;4.07;0;;;
HAR03;2018;12;3;2;0;39;;;;;;;;;;;;1;;;;4.07;0;;;
HAR03;2018;12;3;2;0;40;;;;;;;;;;;;1;;;;4.07;0;;;
HAR03;2018;12;3;2;5;35;;;;;;;;;;;;1;;;;4.07;0;;;
HAR03;2018;12;3;2;5;36;;;;;;;;;;;;1;;;;4.07;0;;;
HAR03;2018;12;3;2;5;43;;;;;;;;;;;;1;;;;4.07;0;;;
HAR03;2018;12;3;2;5;44;;;;;;;;;;;;1;;;;4.07;0;;;
HAR03;2018;12;3;2;5;45;;;;;;;;;;;;1;;;;4.07;0;;;
HAR03;2018;12;3;2;6;0;-37.854783;77.524000;0.8;15;4.07;15.5;;;;;;;;3751287S;07731440E;;0;;;
HAR03;2018;12;3;2;11;6;;;;;;;;;;;;1;;;;4.07;0;;;
HAR03;2018;12;3;2;11;7;;;;;;;;;;;;1;;;;4.07;0;;;
HAR03;2018;12;3;2;16;0;;;;;;;;;;;;1;;;;4.07;0;;;
HAR03;2018;12;3;2;16;1;;;;;;;;;;;;1;;;;4.07;0;;;
HAR03;2018;12;3;2;20;56;;;;;;;;;;;;1;;;;4.07;0;;;
HAR03;2018;12;3;2;20;57;;;;;;;;;;;;1;;;;4.07;0;;;
HAR03;2018;12;3;2;21;0;-37.854733;77.524067;0.2;36;4.07;17;;;;;;;;3751284S;07731444E;;0;;;
HAR03;2018;12;3;2;21;4;;;;;;;;;;;;1;;;;4.07;0;;;
HAR03;2018;12;3;2;21;5;;;;;;;;;;;;1;;;;4.07;0;;;
HAR03;2018;12;3;2;21;6;;;;;;;;;;;;1;;;;4.07;0;;;
HAR03;2018;12;3;2;26;48;;;;;;;;;;;;1;;;;4.07;0;;;
HAR03;2018;12;3;2;26;49;;;;;;;;;;;;1;;;;4.06;0;;;
HAR03;2018;12;3;2;31;42;;;;;;;;;;;;1;;;;4.07;0;;;
HAR03;2018;12;3;2;31;43;;;;;;;;;;;;1;;;;4.07;0;;;
HAR03;2018;12;3;2;36;38;;;;;;;;;;;;1;;;;4.07;0;;;
HAR03;2018;12;3;2;36;39;;;;;;;;;;;;1;;;;4.07;0;;;
HAR03;2018;12;3;2;36;46;;;;;;;;;;;;1;;;;4.07;0;;;
HAR03;2018;12;3;2;36;47;;;;;;;;;;;;1;;;;4.07;0;;;
HAR03;2018;12;3;2;36;48;;;;;;;;;;;;1;;;;4.06;0;;;
HAR03;2018;12;3;2;37;0;-37.854633;77.524100;0.6;5;4.06;18;;;;;;;;3751278S;07731446E;;0;;;
HAR03;2018;12;3;2;41;59;;;;;;;;;;;;1;;;;4.07;0;;;
HAR03;2018;12;3;2;42;0;;;;;;;;;;;;1;;;;4.07;0;;;
HAR03;2018;12;3;2;46;54;;;;;;;;;;;;1;;;;4.07;0;;;
HAR03;2018;12;3;2;46;55;;;;;;;;;;;;1;;;;4.07;0;;;
HAR03;2018;12;3;2;51;49;;;;;;;;;;;;1;;;;4.07;0;;;
HAR03;2018;12;3;2;51;50;;;;;;;;;;;;1;;;;4.07;0;;;
HAR03;2018;12;3;2;51;57;;;;;;;;;;;;1;;;;4.07;0;;;
HAR03;2018;12;3;2;51;58;;;;;;;;;;;;1;;;;4.07;0;;;
HAR03;2018;12;3;2;51;59;;;;;;;;;;;;1;;;;4.07;0;;;
HAR03;2018;12;3;2;52;0;-37.854667;77.524167;0.4;14;4.07;18.5;;;;;;;;3751280S;07731450E;;0;;;
HAR03;2018;12;3;2;57;19;;;;;;;;;;;;1;;;;4.07;0;;;
HAR03;2018;12;3;2;57;20;;;;;;;;;;;;1;;;;4.07;0;;;
HAR03;2018;12;3;3;2;13;;;;;;;;;;;;1;;;;4.07;0;;;
HAR03;2018;12;3;3;2;14;;;;;;;;;;;;1;;;;4.07;0;;;
HAR03;2018;12;3;3;7;9;;;;;;;;;;;;1;;;;4.07;0;;;
HAR03;2018;12;3;3;7;10;;;;;;;;;;;;1;;;;4.07;0;;;
HAR03;2018;12;3;3;7;17;;;;;;;;;;;;1;;;;4.07;0;;;
HAR03;2018;12;3;3;7;18;;;;;;;;;;;;1;;;;4.07;0;;;
HAR03;2018;12;3;3;7;19;;;;;;;;;;;;1;;;;4.07;0;;;
HAR03;2018;12;3;3;8;0;-37.854583;77.524183;0.9;36;4.07;19.5;;;;;;;;3751275S;07731451E;;0;;;
HAR03;2018;12;3;3;13;2;;;;;;;;;;;;1;;;;4.07;0;;;
HAR03;2018;12;3;3;13;3;;;;;;;;;;;;1;;;;4.07;0;;;
HAR03;2018;12;3;3;17;56;;;;;;;;;;;;1;;;;4.07;0;;;
HAR03;2018;12;3;3;17;57;;;;;;;;;;;;1;;;;4.07;0;;;
HAR03;2018;12;3;3;22;52;;;;;;;;;;;;1;;;;4.07;0;;;
HAR03;2018;12;3;3;22;53;;;;;;;;;;;;1;;;;4.07;0;;;
HAR03;2018;12;3;3;23;0;;;;;;;;;;;;1;;;;4.07;0;;;
HAR03;2018;12;3;3;23;0;-37.854783;77.524117;0.6;15;4.07;18;;;;;;;;3751287S;07731447E;;0;;;
HAR03;2018;12;3;3;23;1;;;;;;;;;;;;1;;;;4.07;0;;;
HAR03;2018;12;3;3;23;2;;;;;;;;;;;;1;;;;4.07;0;;;
HAR03;2018;12;3;3;28;23;;;;;;;;;;;;1;;;;4.07;0;;;
HAR03;2018;12;3;3;28;24;;;;;;;;;;;;1;;;;4.07;0;;;
HAR03;2018;12;3;3;33;17;;;;;;;;;;;;1;;;;4.07;0;;;
HAR03;2018;12;3;3;33;18;;;;;;;;;;;;1;;;;4.07;0;;;
HAR03;2018;12;3;3;38;0;-37.854367;77.524683;0.2;12;4.07;19.5;;;;;;;;3751262S;07731481E;;0;;;
HAR03;2018;12;3;3;38;13;;;;;;;;;;;;1;;;;4.08;0;;;
HAR03;2018;12;3;3;38;14;;;;;;;;;;;;1;;;;4.08;0;;;
HAR03;2018;12;3;3;38;21;;;;;;;;;;;;1;;;;4.07;0;;;
HAR03;2018;12;3;3;38;22;;;;;;;;;;;;1;;;;4.07;0;;;
HAR03;2018;12;3;3;38;23;;;;;;;;;;;;1;;;;4.07;0;;;
HAR03;2018;12;3;3;43;40;;;;;;;;;;;;1;;;;4.07;0;;;
HAR03;2018;12;3;3;43;41;;;;;;;;;;;;1;;;;4.07;0;;;
HAR03;2018;12;3;3;48;34;;;;;;;;;;;;1;;;;4.08;0;;;
HAR03;2018;12;3;3;48;35;;;;;;;;;;;;1;;;;4.08;0;;;
HAR03;2018;12;3;3;53;0;-37.854567;77.524250;0.4;8;4.08;21.5;;;;;;;;3751274S;07731455E;;0;;;
HAR03;2018;12;3;3;53;30;;;;;;;;;;;;1;;;;4.08;0;;;
HAR03;2018;12;3;3;53;31;;;;;;;;;;;;1;;;;4.08;0;;;
HAR03;2018;12;3;3;53;38;;;;;;;;;;;;1;;;;4.08;0;;;
HAR03;2018;12;3;3;53;39;;;;;;;;;;;;1;;;;4.08;0;;;
HAR03;2018;12;3;3;53;40;;;;;;;;;;;;1;;;;4.08;0;;;
HAR03;2018;12;3;3;58;54;;;;;;;;;;;;1;;;;4.08;0;;;
HAR03;2018;12;3;3;58;55;;;;;;;;;;;;1;;;;4.08;0;;;
HAR03;2018;12;3;4;3;48;;;;;;;;;;;;1;;;;4.08;0;;;
HAR03;2018;12;3;4;3;49;;;;;;;;;;;;1;;;;4.08;0;;;
HAR03;2018;12;3;4;8;44;;;;;;;;;;;;1;;;;4.08;0;;;
HAR03;2018;12;3;4;8;45;;;;;;;;;;;;1;;;;4.08;0;;;
HAR03;2018;12;3;4;8;52;;;;;;;;;;;;1;;;;4.08;0;;;
HAR03;2018;12;3;4;8;53;;;;;;;;;;;;1;;;;4.08;0;;;
HAR03;2018;12;3;4;8;54;;;;;;;;;;;;1;;;;4.08;0;;;
HAR03;2018;12;3;4;9;0;-37.854633;77.524100;0.5;13;4.08;18;;;;;;;;3751278S;07731446E;;0;;;
HAR03;2018;12;3;4;14;12;;;;;;;;;;;;1;;;;4.08;0;;;
HAR03;2018;12;3;4;14;13;;;;;;;;;;;;1;;;;4.08;0;;;
HAR03;2018;12;3;4;19;7;;;;;;;;;;;;1;;;;4.08;0;;;
HAR03;2018;12;3;4;19;8;;;;;;;;;;;;1;;;;4.08;0;;;
HAR03;2018;12;3;4;24;0;-37.854700;77.524100;0.4;24;4.08;20.5;;;;;;;;3751282S;07731446E;;0;;;
HAR03;2018;12;3;4;24;3;;;;;;;;;;;;1;;;;4.08;0;;;
HAR03;2018;12;3;4;24;4;;;;;;;;;;;;1;;;;4.08;0;;;
HAR03;2018;12;3;4;24;11;;;;;;;;;;;;1;;;;4.08;0;;;
HAR03;2018;12;3;4;24;12;;;;;;;;;;;;1;;;;4.08;0;;;
HAR03;2018;12;3;4;24;13;;;;;;;;;;;;1;;;;4.08;0;;;
HAR03;2018;12;3;4;29;43;;;;;;;;;;;;1;;;;4.08;0;;;
HAR03;2018;12;3;4;29;44;;;;;;;;;;;;1;;;;4.08;0;;;
HAR03;2018;12;3;4;34;37;;;;;;;;;;;;1;;;;4.08;0;;;
HAR03;2018;12;3;4;34;38;;;;;;;;;;;;1;;;;4.08;0;;;
HAR03;2018;12;3;4;39;33;;;;;;;;;;;;1;;;;4.08;0;;;
HAR03;2018;12;3;4;39;34;;;;;;;;;;;;1;;;;4.08;0;;;
HAR03;2018;12;3;4;39;41;;;;;;;;;;;;1;;;;4.08;0;;;
HAR03;2018;12;3;4;39;42;;;;;;;;;;;;1;;;;4.08;0;;;
HAR03;2018;12;3;4;39;43;;;;;;;;;;;;1;;;;4.08;0;;;
HAR03;2018;12;3;4;40;0;-37.854417;77.524167;1.0;15;4.08;23.5;;;;;;;;3751265S;07731450E;;0;;;
HAR03;2018;12;3;4;45;3;;;;;;;;;;;;1;;;;4.08;0;;;
HAR03;2018;12;3;4;45;4;;;;;;;;;;;;1;;;;4.08;0;;;
HAR03;2018;12;3;4;49;57;;;;;;;;;;;;1;;;;4.08;0;;;
HAR03;2018;12;3;4;49;58;;;;;;;;;;;;1;;;;4.08;0;;;
HAR03;2018;12;3;4;54;53;;;;;;;;;;;;1;;;;4.08;0;;;
HAR03;2018;12;3;4;54;54;;;;;;;;;;;;1;;;;4.08;0;;;
HAR03;2018;12;3;4;55;0;-37.854717;77.524017;0.5;27;4.08;23.5;;;;;;;;3751283S;07731441E;;0;;;
HAR03;2018;12;3;4;55;10;;;;;;;;;;;;1;;;;4.08;0;;;
HAR03;2018;12;3;5;0;42;;;;;;;;;;;;1;;;;4.08;0;;;
HAR03;2018;12;3;5;0;43;;;;;;;;;;;;1;;;;4.08;0;;;
HAR03;2018;12;3;5;5;37;;;;;;;;;;;;1;;;;4.08;0;;;
HAR03;2018;12;3;5;5;38;;;;;;;;;;;;1;;;;4.08;0;;;
HAR03;2018;12;3;5;10;33;;;;;;;;;;;;1;;;;4.08;0;;;
HAR03;2018;12;3;5;10;34;;;;;;;;;;;;1;;;;4.08;0;;;
HAR03;2018;12;3;5;10;41;;;;;;;;;;;;1;;;;4.08;0;;;
HAR03;2018;12;3;5;10;42;;;;;;;;;;;;1;;;;4.08;0;;;
HAR03;2018;12;3;5;10;43;;;;;;;;;;;;1;;;;4.08;0;;;
HAR03;2018;12;3;5;11;0;-37.854583;77.524133;0.4;46;4.08;24.5;;;;;;;;3751275S;07731448E;;0;;;
HAR03;2018;12;3;5;16;35;;;;;;;;;;;;1;;;;4.08;0;;;
HAR03;2018;12;3;5;16;36;;;;;;;;;;;;1;;;;4.08;0;;;
HAR03;2018;12;3;5;21;30;;;;;;;;;;;;1;;;;4.08;0;;;
HAR03;2018;12;3;5;21;31;;;;;;;;;;;;1;;;;4.08;0;;;
HAR03;2018;12;3;5;26;0;-37.854633;77.524067;0.2;14;4.08;21;;;;;;;;3751278S;07731444E;;0;;;
HAR03;2018;12;3;5;26;26;;;;;;;;;;;;1;;;;4.08;0;;;
HAR03;2018;12;3;5;26;27;;;;;;;;;;;;1;;;;4.08;0;;;
HAR03;2018;12;3;5;26;34;;;;;;;;;;;;1;;;;4.08;0;;;
HAR03;2018;12;3;5;26;35;;;;;;;;;;;;1;;;;4.08;0;;;
HAR03;2018;12;3;5;26;36;;;;;;;;;;;;1;;;;4.08;0;;;
HAR03;2018;12;3;5;31;55;;;;;;;;;;;;1;;;;4.08;0;;;
HAR03;2018;12;3;5;31;56;;;;;;;;;;;;1;;;;4.08;0;;;
HAR03;2018;12;3;5;36;49;;;;;;;;;;;;1;;;;4.09;0;;;
HAR03;2018;12;3;5;36;50;;;;;;;;;;;;1;;;;4.09;0;;;
HAR03;2018;12;3;5;41;45;;;;;;;;;;;;1;;;;4.08;0;;;
HAR03;2018;12;3;5;41;46;;;;;;;;;;;;1;;;;4.08;0;;;
HAR03;2018;12;3;5;41;53;;;;;;;;;;;;1;;;;4.08;0;;;
HAR03;2018;12;3;5;41;54;;;;;;;;;;;;1;;;;4.08;0;;;
HAR03;2018;12;3;5;41;55;;;;;;;;;;;;1;;;;4.08;0;;;
HAR03;2018;12;3;5;42;0;-37.853700;77.524167;0.0;34;4.08;31.5;;;;;;;;3751222S;07731450E;;0;;;
HAR03;2018;12;3;5;47;35;;;;;;;;;;;;1;;;;4.08;0;;;
HAR03;2018;12;3;5;47;36;;;;;;;;;;;;1;;;;4.08;0;;;
HAR03;2018;12;3;5;52;29;;;;;;;;;;;;1;;;;4.09;0;;;
HAR03;2018;12;3;5;52;30;;;;;;;;;;;;1;;;;4.08;0;;;
HAR03;2018;12;3;5;57;25;;;;;;;;;;;;1;;;;4.09;0;;;
HAR03;2018;12;3;5;57;26;;;;;;;;;;;;1;;;;4.08;0;;;
HAR03;2018;12;3;5;57;33;;;;;;;;;;;;1;;;;4.08;0;;;
HAR03;2018;12;3;5;57;34;;;;;;;;;;;;1;;;;4.08;0;;;
HAR03;2018;12;3;5;57;35;;;;;;;;;;;;1;;;;4.08;0;;;
HAR03;2018;12;3;5;58;0;-37.854833;77.523933;1.9;49;4.08;33;;;;;;;;3751290S;07731436E;;0;;;
HAR03;2018;12;3;6;3;29;;;;;;;;;;;;1;;;;4.09;0;;;
HAR03;2018;12;3;6;3;30;;;;;;;;;;;;1;;;;4.09;0;;;
HAR03;2018;12;3;6;8;24;;;;;;;;;;;;1;;;;4.09;0;;;
HAR03;2018;12;3;6;8;25;;;;;;;;;;;;1;;;;4.09;0;;;
HAR03;2018;12;3;6;13;0;-37.854517;77.524250;0.4;9;4.1;42.5;;;;;;;;3751271S;07731455E;;0;;;
HAR03;2018;12;3;6;13;20;;;;;;;;;;;;1;;;;4.1;0;;;
HAR03;2018;12;3;6;13;21;;;;;;;;;;;;1;;;;4.1;0;;;
HAR03;2018;12;3;6;13;28;;;;;;;;;;;;1;;;;4.1;0;;;
HAR03;2018;12;3;6;13;29;;;;;;;;;;;;1;;;;4.1;0;;;
HAR03;2018;12;3;6;13;30;;;;;;;;;;;;1;;;;4.1;0;;;
HAR03;2018;12;3;6;18;43;;;;;;;;;;;;1;;;;4.09;0;;;
HAR03;2018;12;3;6;18;44;;;;;;;;;;;;1;;;;4.09;0;;;
HAR03;2018;12;3;6;23;38;;;;;;;;;;;;1;;;;4.1;0;;;
HAR03;2018;12;3;6;23;39;;;;;;;;;;;;1;;;;4.1;0;;;
HAR03;2018;12;3;6;28;34;;;;;;;;;;;;1;;;;4.1;0;;;
HAR03;2018;12;3;6;28;35;;;;;;;;;;;;1;;;;4.1;0;;;
HAR03;2018;12;3;6;28;42;;;;;;;;;;;;1;;;;4.1;0;;;
HAR03;2018;12;3;6;28;43;;;;;;;;;;;;1;;;;4.1;0;;;
HAR03;2018;12;3;6;28;44;;;;;;;;;;;;1;;;;4.1;0;;;
HAR03;2018;12;3;6;29;0;-37.854600;77.524000;2.6;15;4.1;35.5;;;;;;;;3751276S;07731440E;;0;;;
HAR03;2018;12;3;6;34;4;;;;;;;;;;;;1;;;;4.1;0;;;
HAR03;2018;12;3;6;34;5;;;;;;;;;;;;1;;;;4.1;0;;;
HAR03;2018;12;3;6;38;58;;;;;;;;;;;;1;;;;4.11;0;;;
HAR03;2018;12;3;6;38;59;;;;;;;;;;;;1;;;;4.11;0;;;
HAR03;2018;12;3;6;43;54;;;;;;;;;;;;1;;;;4.11;0;;;
HAR03;2018;12;3;6;43;55;;;;;;;;;;;;1;;;;4.11;0;;;
HAR03;2018;12;3;6;44;0;-37.854517;77.524117;0.5;16;4.11;28.5;;;;;;;;3751271S;07731447E;;0;;;
HAR03;2018;12;3;6;44;2;;;;;;;;;;;;1;;;;4.11;0;;;
HAR03;2018;12;3;6;44;3;;;;;;;;;;;;1;;;;4.11;0;;;
HAR03;2018;12;3;6;44;4;;;;;;;;;;;;1;;;;4.11;0;;;
HAR03;2018;12;3;6;49;26;;;;;;;;;;;;1;;;;4.11;0;;;
HAR03;2018;12;3;6;49;27;;;;;;;;;;;;1;;;;4.11;0;;;
HAR03;2018;12;3;6;54;20;;;;;;;;;;;;1;;;;4.12;0;;;
HAR03;2018;12;3;6;54;21;;;;;;;;;;;;1;;;;4.12;0;;;
HAR03;2018;12;3;6;59;0;-37.854600;77.524050;0.1;18;4.12;30.5;;;;;;;;3751276S;07731443E;;0;;;
HAR03;2018;12;3;6;59;16;;;;;;;;;;;;1;;;;4.12;0;;;
HAR03;2018;12;3;6;59;17;;;;;;;;;;;;1;;;;4.12;0;;;
HAR03;2018;12;3;6;59;24;;;;;;;;;;;;1;;;;4.12;0;;;
HAR03;2018;12;3;6;59;25;;;;;;;;;;;;1;;;;4.12;0;;;
HAR03;2018;12;3;6;59;26;;;;;;;;;;;;1;;;;4.12;0;;;
HAR03;2018;12;3;7;4;49;;;;;;;;;;;;1;;;;4.12;0;;;
HAR03;2018;12;3;7;4;50;;;;;;;;;;;;1;;;;4.12;0;;;
HAR03;2018;12;3;7;9;44;;;;;;;;;;;;1;;;;4.12;0;;;
HAR03;2018;12;3;7;9;45;;;;;;;;;;;;1;;;;4.12;0;;;
HAR03;2018;12;3;7;14;40;;;;;;;;;;;;1;;;;4.12;0;;;
HAR03;2018;12;3;7;14;41;;;;;;;;;;;;1;;;;4.12;0;;;
HAR03;2018;12;3;7;14;48;;;;;;;;;;;;1;;;;4.12;0;;;
HAR03;2018;12;3;7;14;49;;;;;;;;;;;;1;;;;4.12;0;;;
HAR03;2018;12;3;7;14;50;;;;;;;;;;;;1;;;;4.12;0;;;
HAR03;2018;12;3;7;15;0;-37.854617;77.524133;0.1;35;4.12;30.5;;;;;;;;3751277S;07731448E;;0;;;
HAR03;2018;12;3;7;20;29;;;;;;;;;;;;1;;;;4.13;0;;;
HAR03;2018;12;3;7;20;30;;;;;;;;;;;;1;;;;4.13;0;;;
HAR03;2018;12;3;7;25;24;;;;;;;;;;;;1;;;;4.14;0;;;
HAR03;2018;12;3;7;25;25;;;;;;;;;;;;1;;;;4.14;0;;;
HAR03;2018;12;3;7;30;0;-37.854667;77.524150;0.5;6;4.15;42.5;;;;;;;;3751280S;07731449E;;0;;;
HAR03;2018;12;3;7;30;20;;;;;;;;;;;;1;;;;4.15;0;;;
HAR03;2018;12;3;7;30;21;;;;;;;;;;;;1;;;;4.15;0;;;
HAR03;2018;12;3;7;30;28;;;;;;;;;;;;1;;;;4.15;0;;;
HAR03;2018;12;3;7;30;29;;;;;;;;;;;;1;;;;4.15;0;;;
HAR03;2018;12;3;7;30;30;;;;;;;;;;;;1;;;;4.15;0;;;
HAR03;2018;12;3;7;35;42;;;;;;;;;;;;1;;;;4.15;0;;;
HAR03;2018;12;3;7;35;43;;;;;;;;;;;;1;;;;4.15;0;;;
HAR03;2018;12;3;7;40;37;;;;;;;;;;;;1;;;;4.15;0;;;
HAR03;2018;12;3;7;40;38;;;;;;;;;;;;1;;;;4.15;0;;;
HAR03;2018;12;3;7;45;0;-37.854667;77.524067;0.4;1;4.14;43;;;;;;;;3751280S;07731444E;;0;;;
HAR03;2018;12;3;7;45;11;;;;;;;;;;;;1;;;;4.15;0;;;
HAR03;2018;12;3;7;45;33;;;;;;;;;;;;1;;;;4.15;0;;;
HAR03;2018;12;3;7;45;34;;;;;;;;;;;;1;;;;4.15;0;;;
HAR03;2018;12;3;7;45;41;;;;;;;;;;;;1;;;;4.15;0;;;
HAR03;2018;12;3;7;45;42;;;;;;;;;;;;1;;;;4.14;0;;;
HAR03;2018;12;3;7;45;53;;;;;;;;;;;;1;;;;4.14;0;;;
HAR03;2018;12;3;7;50;53;;;;;;;;;;;;1;;;;4.15;0;;;
HAR03;2018;12;3;7;50;54;;;;;;;;;;;;1;;;;4.15;0;;;
HAR03;2018;12;3;7;53;0;;;;;;;;;;;;1;;;;4.15;0;;;
HAR03;2018;12;3;7;54;2;;;;;;;;;;;;1;;;;4.15;0;;;
HAR03;2018;12;3;7;55;4;;;;;;;;;;;;1;;;;4.14;0;;;
HAR03;2018;12;3;7;55;48;;;;;;;;;;;;1;;;;4.14;0;;;
HAR03;2018;12;3;7;55;49;;;;;;;;;;;;1;;;;4.14;0;;;
HAR03;2018;12;3;7;56;7;;;;;;;;;;;;1;;;;4.14;0;;;
HAR03;2018;12;3;7;57;8;;;;;;;;;;;;1;;;;4.14;0;;;
HAR03;2018;12;3;7;58;10;;;;;;;;;;;;1;;;;4.14;0;;;
HAR03;2018;12;3;7;59;11;;;;;;;;;;;;1;;;;4.13;0;;;
HAR03;2018;12;3;8;0;12;;;;;;;;;;;;1;;;;4.13;0;;;
HAR03;2018;12;3;8;0;44;;;;;;;;;;;;1;;;;4.13;0;;;
HAR03;2018;12;3;8;0;45;;;;;;;;;;;;1;;;;4.13;0;;;
HAR03;2018;12;3;8;0;52;;;;;;;;;;;;1;;;;4.13;0;;;
HAR03;2018;12;3;8;0;53;;;;;;;;;;;;1;;;;4.13;0;;;
HAR03;2018;12;3;8;1;0;-37.854883;77.524083;0.3;1;4.13;41.5;;;;;;;;3751293S;07731445E;;0;;;
HAR03;2018;12;3;8;1;8;;;;;;;;;;;;1;;;;4.13;0;;;
HAR03;2018;12;3;8;6;8;;;;;;;;;;;;1;;;;4.13;0;;;
HAR03;2018;12;3;8;6;9;;;;;;;;;;;;1;;;;4.13;0;;;
HAR03;2018;12;3;8;16;0;-37.858950;77.500267;0.6;3;4.15;28;;;;;;;;3751537S;07730016E;;0;;;
HAR03;2018;12;3;8;26;53;;;;;;;;;;;;1;;;;4.15;0;;;
HAR03;2018;12;3;8;27;54;;;;;;;;;;;;1;;;;4.14;0;;;
HAR03;2018;12;3;8;31;0;-37.859717;77.532200;55.;2;4.14;20.5;;;;;;;;3751583S;07731932E;;0;;;
HAR03;2018;12;3;8;36;38;;;;;;;;;;;;1;;;;4.14;0;;;
HAR03;2018;12;3;8;36;39;;;;;;;;;;;;1;;;;4.14;0;;;
HAR03;2018;12;3;8;36;45;;;;;;;;;;;;1;;;;4.14;0;;;
HAR03;2018;12;3;8;37;46;;;;;;;;;;;;1;;;;4.14;0;;;
HAR03;2018;12;3;8;38;47;;;;;;;;;;;;1;;;;4.14;0;;;
HAR03;2018;12;3;8;39;48;;;;;;;;;;;;1;;;;4.14;0;;;
HAR03;2018;12;3;8;40;50;;;;;;;;;;;;1;;;;4.13;0;;;
HAR03;2018;12;3;8;41;32;;;;;;;;;;;;1;;;;4.13;0;;;
HAR03;2018;12;3;8;41;33;;;;;;;;;;;;1;;;;4.13;0;;;
HAR03;2018;12;3;8;41;53;;;;;;;;;;;;1;;;;4.13;0;;;
HAR03;2018;12;3;8;42;54;;;;;;;;;;;;1;;;;4.13;0;;;
HAR03;2018;12;3;8;43;56;;;;;;;;;;;;1;;;;4.13;0;;;
HAR03;2018;12;3;8;44;57;;;;;;;;;;;;1;;;;4.13;0;;;
HAR03;2018;12;3;8;45;58;;;;;;;;;;;;1;;;;4.12;0;;;
HAR03;2018;12;3;8;46;0;-37.854783;77.524133;0.4;1;4.12;30.5;;;;;;;;3751287S;07731448E;;0;;;
HAR03;2018;12;3;8;46;28;;;;;;;;;;;;1;;;;4.12;0;;;
HAR03;2018;12;3;8;46;29;;;;;;;;;;;;1;;;;4.12;0;;;
HAR03;2018;12;3;8;46;36;;;;;;;;;;;;1;;;;4.12;0;;;
HAR03;2018;12;3;8;46;37;;;;;;;;;;;;1;;;;4.12;0;;;
HAR03;2018;12;3;8;46;54;;;;;;;;;;;;1;;;;4.12;0;;;
HAR03;2018;12;3;8;51;54;;;;;;;;;;;;1;;;;4.13;0;;;
HAR03;2018;12;3;8;51;55;;;;;;;;;;;;1;;;;4.13;0;;;
HAR03;2018;12;3;8;56;49;;;;;;;;;;;;1;;;;4.13;0;;;
HAR03;2018;12;3;8;56;50;;;;;;;;;;;;1;;;;4.13;0;;;
HAR03;2018;12;3;9;1;45;;;;;;;;;;;;1;;;;4.13;0;;;
HAR03;2018;12;3;9;1;46;;;;;;;;;;;;1;;;;4.13;0;;;
HAR03;2018;12;3;9;1;53;;;;;;;;;;;;1;;;;4.13;0;;;
HAR03;2018;12;3;9;1;54;;;;;;;;;;;;1;;;;4.13;0;;;
HAR03;2018;12;3;9;1;55;;;;;;;;;;;;1;;;;4.13;0;;;
HAR03;2018;12;3;9;2;0;-37.854800;77.524033;3.8;5;4.13;28.5;;;;;;;;3751288S;07731442E;;0;;;
HAR03;2018;12;3;9;7;5;;;;;;;;;;;;1;;;;4.13;0;;;
HAR03;2018;12;3;9;7;6;;;;;;;;;;;;1;;;;4.13;0;;;
HAR03;2018;12;3;9;11;59;;;;;;;;;;;;1;;;;4.14;0;;;
HAR03;2018;12;3;9;12;0;;;;;;;;;;;;1;;;;4.14;0;;;
HAR03;2018;12;3;9;16;55;;;;;;;;;;;;1;;;;4.14;0;;;
HAR03;2018;12;3;9;16;56;;;;;;;;;;;;1;;;;4.14;0;;;
HAR03;2018;12;3;9;17;0;-37.854567;77.524150;0.9;8;4.14;37.5;;;;;;;;3751274S;07731449E;;0;;;
HAR03;2018;12;3;9;17;3;;;;;;;;;;;;1;;;;4.15;0;;;
HAR03;2018;12;3;9;17;4;;;;;;;;;;;;1;;;;4.14;0;;;
HAR03;2018;12;3;9;17;5;;;;;;;;;;;;1;;;;4.14;0;;;
HAR03;2018;12;3;9;22;18;;;;;;;;;;;;1;;;;4.15;0;;;
HAR03;2018;12;3;9;22;19;;;;;;;;;;;;1;;;;4.15;0;;;
HAR03;2018;12;3;9;25;5;;;;;;;;;;;;1;;;;4.15;0;;;
HAR03;2018;12;3;9;26;6;;;;;;;;;;;;1;;;;4.15;0;;;
HAR03;2018;12;3;9;27;7;;;;;;;;;;;;1;;;;4.15;0;;;
HAR03;2018;12;3;9;27;13;;;;;;;;;;;;1;;;;4.15;0;;;
HAR03;2018;12;3;9;27;14;;;;;;;;;;;;1;;;;4.15;0;;;
HAR03;2018;12;3;9;28;10;;;;;;;;;;;;1;;;;4.15;0;;;
HAR03;2018;12;3;9;29;11;;;;;;;;;;;;1;;;;4.14;0;;;
HAR03;2018;12;3;9;30;12;;;;;;;;;;;;1;;;;4.14;0;;;
HAR03;2018;12;3;9;31;13;;;;;;;;;;;;1;;;;4.14;0;;;
HAR03;2018;12;3;9;32;0;-37.854517;77.524133;0.4;4;4.13;40;;;;;;;;3751271S;07731448E;;0;;;
HAR03;2018;12;3;9;32;9;;;;;;;;;;;;1;;;;4.13;0;;;
HAR03;2018;12;3;9;32;10;;;;;;;;;;;;1;;;;4.13;0;;;
HAR03;2018;12;3;9;32;16;;;;;;;;;;;;1;;;;4.13;0;;;
HAR03;2018;12;3;9;32;18;;;;;;;;;;;;1;;;;4.13;0;;;
HAR03;2018;12;3;9;32;19;;;;;;;;;;;;1;;;;4.13;0;;;
HAR03;2018;12;3;9;32;21;;;;;;;;;;;;1;;;;4.13;0;;;
HAR03;2018;12;3;9;42;32;;;;;;;;;;;;1;;;;4.15;0;;;
HAR03;2018;12;3;9;42;33;;;;;;;;;;;;1;;;;4.15;0;;;
HAR03;2018;12;3;9;47;0;-37.854650;77.524083;1.6;4;4.15;37;;;;;;;;3751279S;07731445E;;0;;;
HAR03;2018;12;3;9;47;28;;;;;;;;;;;;1;;;;4.15;0;;;
HAR03;2018;12;3;9;47;29;;;;;;;;;;;;1;;;;4.15;0;;;
HAR03;2018;12;3;9;47;36;;;;;;;;;;;;1;;;;4.15;0;;;
HAR03;2018;12;3;9;47;37;;;;;;;;;;;;1;;;;4.15;0;;;
HAR03;2018;12;3;9;47;38;;;;;;;;;;;;1;;;;4.15;0;;;
HAR03;2018;12;3;9;52;48;;;;;;;;;;;;1;;;;4.15;0;;;
HAR03;2018;12;3;9;52;49;;;;;;;;;;;;1;;;;4.15;0;;;
HAR03;2018;12;3;9;52;55;;;;;;;;;;;;1;;;;4.15;0;;;
HAR03;2018;12;3;9;53;56;;;;;;;;;;;;1;;;;4.15;0;;;
HAR03;2018;12;3;9;54;58;;;;;;;;;;;;1;;;;4.15;0;;;
HAR03;2018;12;3;9;55;59;;;;;;;;;;;;1;;;;4.14;0;;;
HAR03;2018;12;3;9;57;0;;;;;;;;;;;;1;;;;4.14;0;;;
HAR03;2018;12;3;9;57;42;;;;;;;;;;;;1;;;;4.14;0;;;
HAR03;2018;12;3;9;57;43;;;;;;;;;;;;1;;;;4.14;0;;;
HAR03;2018;12;3;9;58;4;;;;;;;;;;;;1;;;;4.14;0;;;
HAR03;2018;12;3;9;59;5;;;;;;;;;;;;1;;;;4.14;0;;;
HAR03;2018;12;3;10;0;7;;;;;;;;;;;;1;;;;4.14;0;;;
HAR03;2018;12;3;10;1;9;;;;;;;;;;;;1;;;;4.13;0;;;
HAR03;2018;12;3;10;2;10;;;;;;;;;;;;1;;;;4.14;0;;;
HAR03;2018;12;3;10;2;38;;;;;;;;;;;;1;;;;4.13;0;;;
HAR03;2018;12;3;10;2;39;;;;;;;;;;;;1;;;;4.13;0;;;
HAR03;2018;12;3;10;2;47;;;;;;;;;;;;1;;;;4.13;0;;;
HAR03;2018;12;3;10;2;48;;;;;;;;;;;;1;;;;4.13;0;;;
HAR03;2018;12;3;10;2;50;;;;;;;;;;;;1;;;;4.13;0;;;
HAR03;2018;12;3;10;3;0;-37.854617;77.524100;0.2;2;4.13;45;;;;;;;;3751277S;07731446E;;0;;;
HAR03;2018;12;3;10;8;4;;;;;;;;;;;;1;;;;4.14;0;;;
HAR03;2018;12;3;10;8;5;;;;;;;;;;;;1;;;;4.14;0;;;
HAR03;2018;12;3;10;12;58;;;;;;;;;;;;1;;;;4.14;0;;;
HAR03;2018;12;3;10;12;59;;;;;;;;;;;;1;;;;4.14;0;;;
HAR03;2018;12;3;10;17;55;;;;;;;;;;;;1;;;;4.14;0;;;
HAR03;2018;12;3;10;18;0;-37.854600;77.524217;1.2;6;4.14;32.5;;;;;;;;3751276S;07731453E;;0;;;
HAR03;2018;12;3;10;18;2;;;;;;;;;;;;1;;;;4.14;0;;;
HAR03;2018;12;3;10;18;3;;;;;;;;;;;;1;;;;4.14;0;;;
HAR03;2018;12;3;10;18;4;;;;;;;;;;;;1;;;;4.14;0;;;
HAR03;2018;12;3;10;23;16;;;;;;;;;;;;1;;;;4.14;0;;;
HAR03;2018;12;3;10;23;17;;;;;;;;;;;;1;;;;4.14;0;;;
HAR03;2018;12;3;10;28;10;;;;;;;;;;;;1;;;;4.15;0;;;
HAR03;2018;12;3;10;28;11;;;;;;;;;;;;1;;;;4.15;0;;;
HAR03;2018;12;3;10;33;0;-37.854667;77.524067;2.1;7;4.15;33;;;;;;;;3751280S;07731444E;;0;;;
HAR03;2018;12;3;10;33;6;;;;;;;;;;;;1;;;;4.15;0;;;
HAR03;2018;12;3;10;33;7;;;;;;;;;;;;1;;;;4.15;0;;;
HAR03;2018;12;3;10;33;14;;;;;;;;;;;;1;;;;4.15;0;;;
HAR03;2018;12;3;10;33;15;;;;;;;;;;;;1;;;;4.15;0;;;
HAR03;2018;12;3;10;33;16;;;;;;;;;;;;1;;;;4.15;0;;;
HAR03;2018;12;3;10;37;13;;;;;;;;;;;;1;;;;4.15;0;;;
HAR03;2018;12;3;10;38;14;;;;;;;;;;;;1;;;;4.15;0;;;
HAR03;2018;12;3;10;38;27;;;;;;;;;;;;1;;;;4.15;0;;;
HAR03;2018;12;3;10;38;28;;;;;;;;;;;;1;;;;4.14;0;;;
HAR03;2018;12;3;10;39;17;;;;;;;;;;;;1;;;;4.15;0;;;
HAR03;2018;12;3;10;40;18;;;;;;;;;;;;1;;;;4.14;0;;;
HAR03;2018;12;3;10;41;19;;;;;;;;;;;;1;;;;4.14;0;;;
HAR03;2018;12;3;10;42;20;;;;;;;;;;;;1;;;;4.14;0;;;
HAR03;2018;12;3;10;43;21;;;;;;;;;;;;1;;;;4.14;0;;;
HAR03;2018;12;3;10;43;24;;;;;;;;;;;;1;;;;4.13;0;;;
HAR03;2018;12;3;10;43;25;;;;;;;;;;;;1;;;;4.13;0;;;
HAR03;2018;12;3;10;44;25;;;;;;;;;;;;1;;;;4.13;0;;;
HAR03;2018;12;3;10;45;27;;;;;;;;;;;;1;;;;4.13;0;;;
HAR03;2018;12;3;10;46;28;;;;;;;;;;;;1;;;;4.13;0;;;
HAR03;2018;12;3;10;47;30;;;;;;;;;;;;1;;;;4.13;0;;;
HAR03;2018;12;3;10;48;0;-37.854567;77.524133;0.4;1;4.12;37;;;;;;;;3751274S;07731448E;;0;;;
HAR03;2018;12;3;10;48;19;;;;;;;;;;;;1;;;;4.12;0;;;
HAR03;2018;12;3;10;48;20;;;;;;;;;;;;1;;;;4.12;0;;;
HAR03;2018;12;3;10;48;27;;;;;;;;;;;;1;;;;4.12;0;;;
HAR03;2018;12;3;10;48;28;;;;;;;;;;;;1;;;;4.12;0;;;
HAR03;2018;12;3;10;48;46;;;;;;;;;;;;1;;;;4.12;0;;;
HAR03;2018;12;3;10;53;46;;;;;;;;;;;;1;;;;4.13;0;;;
HAR03;2018;12;3;10;53;47;;;;;;;;;;;;1;;;;4.13;0;;;
HAR03;2018;12;3;10;58;41;;;;;;;;;;;;1;;;;4.14;0;;;
HAR03;2018;12;3;10;58;42;;;;;;;;;;;;1;;;;4.14;0;;;
HAR03;2018;12;3;11;3;38;;;;;;;;;;;;1;;;;4.14;0;;;
HAR03;2018;12;3;11;3;45;;;;;;;;;;;;1;;;;4.14;0;;;
HAR03;2018;12;3;11;3;46;;;;;;;;;;;;1;;;;4.14;0;;;
HAR03;2018;12;3;11;3;47;;;;;;;;;;;;1;;;;4.14;0;;;
HAR03;2018;12;3;11;4;0;-37.854483;77.524067;2.8;9;4.14;32;;;;;;;;3751269S;07731444E;;0;;;
HAR03;2018;12;3;11;9;2;;;;;;;;;;;;1;;;;4.14;0;;;
HAR03;2018;12;3;11;9;3;;;;;;;;;;;;1;;;;4.14;0;;;
HAR03;2018;12;3;11;13;56;;;;;;;;;;;;1;;;;4.14;0;;;
HAR03;2018;12;3;11;13;57;;;;;;;;;;;;1;;;;4.14;0;;;
HAR03;2018;12;3;11;18;52;;;;;;;;;;;;1;;;;4.14;0;;;
HAR03;2018;12;3;11;18;53;;;;;;;;;;;;1;;;;4.14;0;;;
HAR03;2018;12;3;11;19;0;;;;;;;;;;;;1;;;;4.14;0;;;
HAR03;2018;12;3;11;19;0;-37.854733;77.524083;0.2;7;4.14;28;;;;;;;;3751284S;07731445E;;0;;;
HAR03;2018;12;3;11;19;1;;;;;;;;;;;;1;;;;4.14;0;;;
HAR03;2018;12;3;11;19;2;;;;;;;;;;;;1;;;;4.14;0;;;
HAR03;2018;12;3;11;24;14;;;;;;;;;;;;1;;;;4.14;0;;;
HAR03;2018;12;3;11;24;15;;;;;;;;;;;;1;;;;4.14;0;;;
HAR03;2018;12;3;11;29;8;;;;;;;;;;;;1;;;;4.15;0;;;
HAR03;2018;12;3;11;29;9;;;;;;;;;;;;1;;;;4.15;0;;;
HAR03;2018;12;3;11;34;0;-37.854717;77.523983;0.3;7;4.14;31;;;;;;;;3751283S;07731439E;;0;;;
HAR03;2018;12;3;11;34;4;;;;;;;;;;;;1;;;;4.15;0;;;
HAR03;2018;12;3;11;34;5;;;;;;;;;;;;1;;;;4.15;0;;;
HAR03;2018;12;3;11;34;13;;;;;;;;;;;;1;;;;4.15;0;;;
HAR03;2018;12;3;11;34;14;;;;;;;;;;;;1;;;;4.14;0;;;
HAR03;2018;12;3;11;39;27;;;;;;;;;;;;1;;;;4.15;0;;;
HAR03;2018;12;3;11;39;28;;;;;;;;;;;;1;;;;4.15;0;;;
HAR03;2018;12;3;11;44;21;;;;;;;;;;;;1;;;;4.15;0;;;
HAR03;2018;12;3;11;44;22;;;;;;;;;;;;1;;;;4.15;0;;;
HAR03;2018;12;3;11;49;0;-37.854633;77.524050;0.8;10;4.15;24.5;;;;;;;;3751278S;07731443E;;0;;;
HAR03;2018;12;3;11;49;17;;;;;;;;;;;;1;;;;4.15;0;;;
HAR03;2018;12;3;11;49;18;;;;;;;;;;;;1;;;;4.15;0;;;
HAR03;2018;12;3;11;49;25;;;;;;;;;;;;1;;;;4.15;0;;;
HAR03;2018;12;3;11;49;26;;;;;;;;;;;;1;;;;4.15;0;;;
HAR03;2018;12;3;11;49;27;;;;;;;;;;;;1;;;;4.15;0;;;
HAR03;2018;12;3;11;54;44;;;;;;;;;;;;1;;;;4.15;0;;;
HAR03;2018;12;3;11;54;45;;;;;;;;;;;;1;;;;4.15;0;;;
HAR03;2018;12;3;11;59;37;;;;;;;;;;;;1;;;;4.15;0;;;
HAR03;2018;12;3;11;59;38;;;;;;;;;;;;1;;;;4.15;0;;;
HAR03;2018;12;3;12;4;33;;;;;;;;;;;;1;;;;4.15;0;;;
HAR03;2018;12;3;12;4;34;;;;;;;;;;;;1;;;;4.15;0;;;
HAR03;2018;12;3;12;4;41;;;;;;;;;;;;1;;;;4.15;0;;;
HAR03;2018;12;3;12;4;42;;;;;;;;;;;;1;;;;4.15;0;;;
HAR03;2018;12;3;12;4;43;;;;;;;;;;;;1;;;;4.15;0;;;
HAR03;2018;12;3;12;5;0;-37.854717;77.524050;2.4;23;4.15;23;;;;;;;;3751283S;07731443E;;0;;;
HAR03;2018;12;3;12;20;0;-37.856150;77.518983;29.;7;4.15;14;;;;;;;;3751369S;07731139E;;0;;;
HAR03;2018;12;3;12;20;10;;;;;;;;;;;;1;;;;4.15;0;;;
HAR03;2018;12;3;12;20;11;;;;;;;;;;;;1;;;;4.15;0;;;
HAR03;2018;12;3;12;20;14;;;;;;;;;;;;1;;;;4.15;0;;;
HAR03;2018;12;3;12;25;28;;;;;;;;;;;;1;;;;4.15;0;;;
HAR03;2018;12;3;12;25;29;;;;;;;;;;;;1;;;;4.15;0;;;
HAR03;2018;12;3;12;30;23;;;;;;;;;;;;1;;;;4.15;0;;;
HAR03;2018;12;3;12;30;24;;;;;;;;;;;;1;;;;4.15;0;;;
HAR03;2018;12;3;12;35;19;;;;;;;;;;;;1;;;;4.15;0;;;
HAR03;2018;12;3;12;35;20;;;;;;;;;;;;1;;;;4.15;0;;;
HAR03;2018;12;3;12;35;27;;;;;;;;;;;;1;;;;4.15;0;;;
HAR03;2018;12;3;12;35;28;;;;;;;;;;;;1;;;;4.15;0;;;
HAR03;2018;12;3;12;35;29;;;;;;;;;;;;1;;;;4.15;0;;;
HAR03;2018;12;3;12;36;0;-37.854633;77.524083;0.2;25;4.15;16.5;;;;;;;;3751278S;07731445E;;0;;;
HAR03;2018;12;3;12;40;59;;;;;;;;;;;;1;;;;4.15;0;;;
HAR03;2018;12;3;12;41;0;;;;;;;;;;;;1;;;;4.14;0;;;
HAR03;2018;12;3;12;45;54;;;;;;;;;;;;1;;;;4.15;0;;;
HAR03;2018;12;3;12;45;55;;;;;;;;;;;;1;;;;4.15;0;;;
HAR03;2018;12;3;12;50;50;;;;;;;;;;;;1;;;;4.15;0;;;
HAR03;2018;12;3;12;50;51;;;;;;;;;;;;1;;;;4.15;0;;;
HAR03;2018;12;3;12;50;58;;;;;;;;;;;;1;;;;4.15;0;;;
HAR03;2018;12;3;12;50;59;;;;;;;;;;;;1;;;;4.15;0;;;
HAR03;2018;12;3;12;51;0;-37.854433;77.524000;0.2;11;4.15;18;;;;;;;;3751266S;07731440E;;0;;;
HAR03;2018;12;3;12;51;0;;;;;;;;;;;;1;;;;4.15;0;;;
HAR03;2018;12;3;12;56;17;;;;;;;;;;;;1;;;;4.15;0;;;
HAR03;2018;12;3;12;56;18;;;;;;;;;;;;1;;;;4.14;0;;;
HAR03;2018;12;3;13;1;12;;;;;;;;;;;;1;;;;4.15;0;;;
HAR03;2018;12;3;13;1;13;;;;;;;;;;;;1;;;;4.15;0;;;
HAR03;2018;12;3;13;6;0;-37.854700;77.524183;0.8;7;4.14;18;;;;;;;;3751282S;07731451E;;0;;;
HAR03;2018;12;3;13;6;8;;;;;;;;;;;;1;;;;4.15;0;;;
HAR03;2018;12;3;13;6;9;;;;;;;;;;;;1;;;;4.14;0;;;
HAR03;2018;12;3;13;6;16;;;;;;;;;;;;1;;;;4.15;0;;;
HAR03;2018;12;3;13;6;18;;;;;;;;;;;;1;;;;4.14;0;;;
HAR03;2018;12;3;13;6;19;;;;;;;;;;;;1;;;;4.14;0;;;
HAR03;2018;12;3;13;11;34;;;;;;;;;;;;1;;;;4.14;0;;;
HAR03;2018;12;3;13;11;35;;;;;;;;;;;;1;;;;4.14;0;;;
HAR03;2018;12;3;13;16;28;;;;;;;;;;;;1;;;;4.14;0;;;
HAR03;2018;12;3;13;16;29;;;;;;;;;;;;1;;;;4.14;0;;;
HAR03;2018;12;3;13;21;0;-37.854667;77.524233;1.3;10;4.14;17.5;;;;;;;;3751280S;07731454E;;0;;;
HAR03;2018;12;3;13;21;24;;;;;;;;;;;;1;;;;4.14;0;;;
HAR03;2018;12;3;13;21;25;;;;;;;;;;;;1;;;;4.14;0;;;
HAR03;2018;12;3;13;21;32;;;;;;;;;;;;1;;;;4.14;0;;;
HAR03;2018;12;3;13;21;33;;;;;;;;;;;;1;;;;4.14;0;;;
HAR03;2018;12;3;13;21;34;;;;;;;;;;;;1;;;;4.14;0;;;
HAR03;2018;12;3;13;26;48;;;;;;;;;;;;1;;;;4.14;0;;;
HAR03;2018;12;3;13;26;49;;;;;;;;;;;;1;;;;4.14;0;;;
HAR03;2018;12;3;13;31;43;;;;;;;;;;;;1;;;;4.14;0;;;
HAR03;2018;12;3;13;31;44;;;;;;;;;;;;1;;;;4.14;0;;;
HAR03;2018;12;3;13;36;39;;;;;;;;;;;;1;;;;4.14;0;;;
HAR03;2018;12;3;13;36;40;;;;;;;;;;;;1;;;;4.14;0;;;
HAR03;2018;12;3;13;36;47;;;;;;;;;;;;1;;;;4.14;0;;;
HAR03;2018;12;3;13;36;48;;;;;;;;;;;;1;;;;4.14;0;;;
HAR03;2018;12;3;13;36;49;;;;;;;;;;;;1;;;;4.14;0;;;
HAR03;2018;12;3;13;37;0;-37.854550;77.524183;1.8;5;4.14;16.5;;;;;;;;3751273S;07731451E;;0;;;
HAR03;2018;12;3;13;41;59;;;;;;;;;;;;1;;;;4.14;0;;;
HAR03;2018;12;3;13;42;0;;;;;;;;;;;;1;;;;4.14;0;;;
HAR03;2018;12;3;13;46;54;;;;;;;;;;;;1;;;;4.14;0;;;
HAR03;2018;12;3;13;46;55;;;;;;;;;;;;1;;;;4.14;0;;;
HAR03;2018;12;3;13;51;50;;;;;;;;;;;;1;;;;4.14;0;;;
HAR03;2018;12;3;13;51;51;;;;;;;;;;;;1;;;;4.14;0;;;
HAR03;2018;12;3;13;51;58;;;;;;;;;;;;1;;;;4.14;0;;;
HAR03;2018;12;3;13;51;59;;;;;;;;;;;;1;;;;4.14;0;;;
HAR03;2018;12;3;13;52;0;-37.854450;77.524117;0.4;14;4.14;16;;;;;;;;3751267S;07731447E;;0;;;
HAR03;2018;12;3;13;52;0;;;;;;;;;;;;1;;;;4.14;0;;;
HAR03;2018;12;3;13;57;19;;;;;;;;;;;;1;;;;4.14;0;;;
HAR03;2018;12;3;13;57;20;;;;;;;;;;;;1;;;;4.14;0;;;
HAR03;2018;12;3;14;2;13;;;;;;;;;;;;1;;;;4.14;0;;;
HAR03;2018;12;3;14;2;14;;;;;;;;;;;;1;;;;4.14;0;;;
HAR03;2018;12;3;14;7;0;-37.854767;77.524200;0.7;7;4.14;16;;;;;;;;3751286S;07731452E;;0;;;
HAR03;2018;12;3;14;7;9;;;;;;;;;;;;1;;;;4.14;0;;;
HAR03;2018;12;3;14;7;10;;;;;;;;;;;;1;;;;4.14;0;;;
HAR03;2018;12;3;14;7;17;;;;;;;;;;;;1;;;;4.14;0;;;
HAR03;2018;12;3;14;7;18;;;;;;;;;;;;1;;;;4.14;0;;;
HAR03;2018;12;3;14;7;19;;;;;;;;;;;;1;;;;4.14;0;;;
HAR03;2018;12;3;14;12;33;;;;;;;;;;;;1;;;;4.14;0;;;
HAR03;2018;12;3;14;12;34;;;;;;;;;;;;1;;;;4.14;0;;;
HAR03;2018;12;3;14;17;27;;;;;;;;;;;;1;;;;4.14;0;;;
HAR03;2018;12;3;14;17;28;;;;;;;;;;;;1;;;;4.14;0;;;
HAR03;2018;12;3;14;22;0;-37.854667;77.524317;1.1;14;4.14;15;;;;;;;;3751280S;07731459E;;0;;;
HAR03;2018;12;3;14;22;23;;;;;;;;;;;;1;;;;4.14;0;;;
HAR03;2018;12;3;14;22;24;;;;;;;;;;;;1;;;;4.14;0;;;
HAR03;2018;12;3;14;22;31;;;;;;;;;;;;1;;;;4.14;0;;;
HAR03;2018;12;3;14;22;32;;;;;;;;;;;;1;;;;4.14;0;;;
HAR03;2018;12;3;14;22;33;;;;;;;;;;;;1;;;;4.14;0;;;
HAR03;2018;12;3;14;27;54;;;;;;;;;;;;1;;;;4.13;0;;;
HAR03;2018;12;3;14;27;55;;;;;;;;;;;;1;;;;4.13;0;;;
HAR03;2018;12;3;14;32;48;;;;;;;;;;;;1;;;;4.14;0;;;
HAR03;2018;12;3;14;32;49;;;;;;;;;;;;1;;;;4.13;0;;;
HAR03;2018;12;3;14;37;44;;;;;;;;;;;;1;;;;4.14;0;;;
HAR03;2018;12;3;14;37;45;;;;;;;;;;;;1;;;;4.13;0;;;
HAR03;2018;12;3;14;37;52;;;;;;;;;;;;1;;;;4.14;0;;;
HAR03;2018;12;3;14;37;53;;;;;;;;;;;;1;;;;4.13;0;;;
HAR03;2018;12;3;14;37;54;;;;;;;;;;;;1;;;;4.13;0;;;
HAR03;2018;12;3;14;38;0;-37.854750;77.524050;0.7;33;4.13;15.5;;;;;;;;3751285S;07731443E;;0;;;
HAR03;2018;12;3;14;43;31;;;;;;;;;;;;1;;;;4.13;0;;;
HAR03;2018;12;3;14;43;32;;;;;;;;;;;;1;;;;4.13;0;;;
HAR03;2018;12;3;14;48;26;;;;;;;;;;;;1;;;;4.13;0;;;
HAR03;2018;12;3;14;48;27;;;;;;;;;;;;1;;;;4.13;0;;;
HAR03;2018;12;3;14;53;0;-37.854917;77.524283;0.7;21;4.13;15;;;;;;;;3751295S;07731457E;;0;;;
HAR03;2018;12;3;14;53;22;;;;;;;;;;;;1;;;;4.13;0;;;
HAR03;2018;12;3;14;53;23;;;;;;;;;;;;1;;;;4.13;0;;;
HAR03;2018;12;3;14;53;30;;;;;;;;;;;;1;;;;4.13;0;;;
HAR03;2018;12;3;14;53;31;;;;;;;;;;;;1;;;;4.13;0;;;
HAR03;2018;12;3;14;53;32;;;;;;;;;;;;1;;;;4.13;0;;;
HAR03;2018;12;3;14;58;58;;;;;;;;;;;;1;;;;4.13;0;;;
HAR03;2018;12;3;14;58;59;;;;;;;;;;;;1;;;;4.13;0;;;
HAR03;2018;12;3;15;3;52;;;;;;;;;;;;1;;;;4.13;0;;;
HAR03;2018;12;3;15;3;53;;;;;;;;;;;;1;;;;4.13;0;;;
HAR03;2018;12;3;15;8;48;;;;;;;;;;;;1;;;;4.13;0;;;
HAR03;2018;12;3;15;8;49;;;;;;;;;;;;1;;;;4.13;0;;;
HAR03;2018;12;3;15;8;56;;;;;;;;;;;;1;;;;4.13;0;;;
HAR03;2018;12;3;15;8;57;;;;;;;;;;;;1;;;;4.13;0;;;
HAR03;2018;12;3;15;8;58;;;;;;;;;;;;1;;;;4.13;0;;;
HAR03;2018;12;3;15;9;0;-37.854700;77.524217;0.9;16;4.13;15;;;;;;;;3751282S;07731453E;;0;;;
HAR03;2018;12;3;15;14;20;;;;;;;;;;;;1;;;;4.13;0;;;
HAR03;2018;12;3;15;14;21;;;;;;;;;;;;1;;;;4.13;0;;;
HAR03;2018;12;3;15;19;14;;;;;;;;;;;;1;;;;4.13;0;;;
HAR03;2018;12;3;15;19;15;;;;;;;;;;;;1;;;;4.13;0;;;
HAR03;2018;12;3;15;24;10;;;;;;;;;;;;1;;;;4.13;0;;;
HAR03;2018;12;3;15;24;11;;;;;;;;;;;;1;;;;4.13;0;;;
HAR03;2018;12;3;15;24;19;;;;;;;;;;;;1;;;;4.13;0;;;
HAR03;2018;12;3;15;24;20;;;;;;;;;;;;1;;;;4.13;0;;;
HAR03;2018;12;3;15;24;21;;;;;;;;;;;;1;;;;4.13;0;;;
HAR03;2018;12;3;15;25;0;-37.854433;77.524283;0.8;73;4.13;15;;;;;;;;3751266S;07731457E;;0;;;
HAR03;2018;12;3;15;30;40;;;;;;;;;;;;1;;;;4.12;0;;;
HAR03;2018;12;3;15;30;41;;;;;;;;;;;;1;;;;4.12;0;;;
HAR03;2018;12;3;15;35;35;;;;;;;;;;;;1;;;;4.12;0;;;
HAR03;2018;12;3;15;35;36;;;;;;;;;;;;1;;;;4.12;0;;;
HAR03;2018;12;3;15;40;31;;;;;;;;;;;;1;;;;4.12;0;;;
HAR03;2018;12;3;15;40;32;;;;;;;;;;;;1;;;;4.12;0;;;
HAR03;2018;12;3;15;40;39;;;;;;;;;;;;1;;;;4.12;0;;;
HAR03;2018;12;3;15;40;40;;;;;;;;;;;;1;;;;4.12;0;;;
HAR03;2018;12;3;15;40;41;;;;;;;;;;;;1;;;;4.12;0;;;
HAR03;2018;12;3;15;41;0;-37.854517;77.524233;0.3;15;4.12;15;;;;;;;;3751271S;07731454E;;0;;;
HAR03;2018;12;3;15;46;2;;;;;;;;;;;;1;;;;4.12;0;;;
HAR03;2018;12;3;15;50;55;;;;;;;;;;;;1;;;;4.12;0;;;
HAR03;2018;12;3;15;50;56;;;;;;;;;;;;1;;;;4.12;0;;;
HAR03;2018;12;3;15;55;51;;;;;;;;;;;;1;;;;4.12;0;;;
HAR03;2018;12;3;15;55;52;;;;;;;;;;;;1;;;;4.12;0;;;
HAR03;2018;12;3;15;55;59;;;;;;;;;;;;1;;;;4.12;0;;;
HAR03;2018;12;3;15;56;0;-37.854650;77.524167;0.2;34;4.12;15;;;;;;;;3751279S;07731450E;;0;;;
HAR03;2018;12;3;15;56;0;;;;;;;;;;;;1;;;;4.12;0;;;
HAR03;2018;12;3;15;56;1;;;;;;;;;;;;1;;;;4.12;0;;;
HAR03;2018;12;3;16;1;41;;;;;;;;;;;;1;;;;4.12;0;;;
HAR03;2018;12;3;16;1;42;;;;;;;;;;;;1;;;;4.12;0;;;
HAR03;2018;12;3;16;6;35;;;;;;;;;;;;1;;;;4.12;0;;;
HAR03;2018;12;3;16;6;36;;;;;;;;;;;;1;;;;4.12;0;;;
HAR03;2018;12;3;16;11;31;;;;;;;;;;;;1;;;;4.12;0;;;
HAR03;2018;12;3;16;11;32;;;;;;;;;;;;1;;;;4.12;0;;;
HAR03;2018;12;3;16;11;39;;;;;;;;;;;;1;;;;4.12;0;;;
HAR03;2018;12;3;16;11;40;;;;;;;;;;;;1;;;;4.12;0;;;
HAR03;2018;12;3;16;11;41;;;;;;;;;;;;1;;;;4.12;0;;;
HAR03;2018;12;3;16;12;0;-37.854367;77.524367;0.2;39;4.12;15.5;;;;;;;;3751262S;07731462E;;0;;;
HAR03;2018;12;3;16;17;25;;;;;;;;;;;;1;;;;4.12;0;;;
HAR03;2018;12;3;16;17;26;;;;;;;;;;;;1;;;;4.12;0;;;
HAR03;2018;12;3;16;22;20;;;;;;;;;;;;1;;;;4.12;0;;;
HAR03;2018;12;3;16;22;21;;;;;;;;;;;;1;;;;4.12;0;;;
HAR03;2018;12;3;16;27;0;-37.854383;77.524483;0.2;16;4.12;16;;;;;;;;3751263S;07731469E;;0;;;
HAR03;2018;12;3;16;27;16;;;;;;;;;;;;1;;;;4.12;0;;;
HAR03;2018;12;3;16;27;17;;;;;;;;;;;;1;;;;4.12;0;;;
HAR03;2018;12;3;16;27;24;;;;;;;;;;;;1;;;;4.12;0;;;
HAR03;2018;12;3;16;27;25;;;;;;;;;;;;1;;;;4.12;0;;;
HAR03;2018;12;3;16;27;26;;;;;;;;;;;;1;;;;4.12;0;;;
HAR03;2018;12;3;16;32;48;;;;;;;;;;;;1;;;;4.12;0;;;
HAR03;2018;12;3;16;32;49;;;;;;;;;;;;1;;;;4.12;0;;;
HAR03;2018;12;3;16;37;42;;;;;;;;;;;;1;;;;4.12;0;;;
HAR03;2018;12;3;16;37;43;;;;;;;;;;;;1;;;;4.12;0;;;
HAR03;2018;12;3;16;42;38;;;;;;;;;;;;1;;;;4.12;0;;;
HAR03;2018;12;3;16;42;39;;;;;;;;;;;;1;;;;4.12;0;;;
HAR03;2018;12;3;16;42;46;;;;;;;;;;;;1;;;;4.12;0;;;
HAR03;2018;12;3;16;42;47;;;;;;;;;;;;1;;;;4.12;0;;;
HAR03;2018;12;3;16;42;48;;;;;;;;;;;;1;;;;4.12;0;;;
HAR03;2018;12;3;16;43;0;-37.854533;77.524467;0.6;26;4.12;16;;;;;;;;3751272S;07731468E;;0;;;
HAR03;2018;12;3;16;48;20;;;;;;;;;;;;1;;;;4.12;0;;;
HAR03;2018;12;3;16;48;21;;;;;;;;;;;;1;;;;4.12;0;;;
HAR03;2018;12;3;16;53;15;;;;;;;;;;;;1;;;;4.12;0;;;
HAR03;2018;12;3;16;53;16;;;;;;;;;;;;1;;;;4.12;0;;;
HAR03;2018;12;3;16;58;11;;;;;;;;;;;;1;;;;4.12;0;;;
HAR03;2018;12;3;16;58;12;;;;;;;;;;;;1;;;;4.12;0;;;
HAR03;2018;12;3;16;58;19;;;;;;;;;;;;1;;;;4.12;0;;;
HAR03;2018;12;3;16;58;20;;;;;;;;;;;;1;;;;4.12;0;;;
HAR03;2018;12;3;16;58;21;;;;;;;;;;;;1;;;;4.12;0;;;
HAR03;2018;12;3;16;59;0;-37.854717;77.524050;0.5;33;4.12;16;;;;;;;;3751283S;07731443E;;0;;;
HAR03;2018;12;3;17;3;59;;;;;;;;;;;;1;;;;4.12;0;;;
HAR03;2018;12;3;17;4;0;;;;;;;;;;;;1;;;;4.12;0;;;
HAR03;2018;12;3;17;8;54;;;;;;;;;;;;1;;;;4.12;0;;;
HAR03;2018;12;3;17;8;55;;;;;;;;;;;;1;;;;4.12;0;;;
HAR03;2018;12;3;17;13;50;;;;;;;;;;;;1;;;;4.12;0;;;
HAR03;2018;12;3;17;13;51;;;;;;;;;;;;1;;;;4.12;0;;;
HAR03;2018;12;3;17;13;58;;;;;;;;;;;;1;;;;4.12;0;;;
HAR03;2018;12;3;17;13;59;;;;;;;;;;;;1;;;;4.12;0;;;
HAR03;2018;12;3;17;14;0;;;;;;;;;;;;1;;;;4.12;0;;;
HAR03;2018;12;3;17;14;0;-37.854850;77.523983;0.8;13;4.12;15.5;;;;;;;;3751291S;07731439E;;0;;;
HAR03;2018;12;3;17;19;18;;;;;;;;;;;;1;;;;4.12;0;;;
HAR03;2018;12;3;17;19;19;;;;;;;;;;;;1;;;;4.11;0;;;
HAR03;2018;12;3;17;24;13;;;;;;;;;;;;1;;;;4.12;0;;;
HAR03;2018;12;3;17;24;14;;;;;;;;;;;;1;;;;4.12;0;;;
HAR03;2018;12;3;17;29;0;-37.854850;77.524033;0.5;22;4.11;15.5;;;;;;;;3751291S;07731442E;;0;;;
HAR03;2018;12;3;17;29;9;;;;;;;;;;;;1;;;;4.12;0;;;
HAR03;2018;12;3;17;29;10;;;;;;;;;;;;1;;;;4.12;0;;;
HAR03;2018;12;3;17;29;17;;;;;;;;;;;;1;;;;4.11;0;;;
HAR03;2018;12;3;17;29;18;;;;;;;;;;;;1;;;;4.11;0;;;
HAR03;2018;12;3;17;29;19;;;;;;;;;;;;1;;;;4.11;0;;;
HAR03;2018;12;3;17;34;47;;;;;;;;;;;;1;;;;4.11;0;;;
HAR03;2018;12;3;17;34;48;;;;;;;;;;;;1;;;;4.11;0;;;
HAR03;2018;12;3;17;39;41;;;;;;;;;;;;1;;;;4.11;0;;;
HAR03;2018;12;3;17;39;42;;;;;;;;;;;;1;;;;4.11;0;;;
HAR03;2018;12;3;17;44;37;;;;;;;;;;;;1;;;;4.11;0;;;
HAR03;2018;12;3;17;44;38;;;;;;;;;;;;1;;;;4.11;0;;;
HAR03;2018;12;3;17;44;45;;;;;;;;;;;;1;;;;4.11;0;;;
HAR03;2018;12;3;17;44;46;;;;;;;;;;;;1;;;;4.11;0;;;
HAR03;2018;12;3;17;44;47;;;;;;;;;;;;1;;;;4.11;0;;;
HAR03;2018;12;3;17;46;0;-37.854700;77.524067;0.3;70;4.11;15.5;;;;;;;;3751282S;07731444E;;0;;;
HAR03;2018;12;3;17;51;3;;;;;;;;;;;;1;;;;4.11;0;;;
HAR03;2018;12;3;17;51;4;;;;;;;;;;;;1;;;;4.11;0;;;
HAR03;2018;12;3;17;55;58;;;;;;;;;;;;1;;;;4.11;0;;;
HAR03;2018;12;3;17;55;59;;;;;;;;;;;;1;;;;4.11;0;;;
HAR03;2018;12;3;18;0;54;;;;;;;;;;;;1;;;;4.11;0;;;
HAR03;2018;12;3;18;0;55;;;;;;;;;;;;1;;;;4.11;0;;;
HAR03;2018;12;3;18;1;0;-37.854867;77.524267;4.7;20;4.11;15.5;;;;;;;;3751292S;07731456E;;0;;;
HAR03;2018;12;3;18;1;2;;;;;;;;;;;;1;;;;4.11;0;;;
HAR03;2018;12;3;18;1;3;;;;;;;;;;;;1;;;;4.11;0;;;
HAR03;2018;12;3;18;1;4;;;;;;;;;;;;1;;;;4.11;0;;;
HAR03;2018;12;3;18;6;28;;;;;;;;;;;;1;;;;4.11;0;;;
HAR03;2018;12;3;18;6;29;;;;;;;;;;;;1;;;;4.1;0;;;
HAR03;2018;12;3;18;11;22;;;;;;;;;;;;1;;;;4.11;0;;;
HAR03;2018;12;3;18;11;23;;;;;;;;;;;;1;;;;4.11;0;;;
HAR03;2018;12;3;18;16;0;-37.854767;77.524250;1.4;13;4.1;15.5;;;;;;;;3751286S;07731455E;;0;;;
HAR03;2018;12;3;18;16;18;;;;;;;;;;;;1;;;;4.1;0;;;
HAR03;2018;12;3;18;16;19;;;;;;;;;;;;1;;;;4.11;0;;;
HAR03;2018;12;3;18;16;26;;;;;;;;;;;;1;;;;4.11;0;;;
HAR03;2018;12;3;18;16;27;;;;;;;;;;;;1;;;;4.1;0;;;
HAR03;2018;12;3;18;16;28;;;;;;;;;;;;1;;;;4.1;0;;;
HAR03;2018;12;3;18;21;49;;;;;;;;;;;;1;;;;4.1;0;;;
HAR03;2018;12;3;18;21;50;;;;;;;;;;;;1;;;;4.1;0;;;
HAR03;2018;12;3;18;26;44;;;;;;;;;;;;1;;;;4.1;0;;;
HAR03;2018;12;3;18;26;45;;;;;;;;;;;;1;;;;4.1;0;;;
HAR03;2018;12;3;18;31;40;;;;;;;;;;;;1;;;;4.1;0;;;
HAR03;2018;12;3;18;31;41;;;;;;;;;;;;1;;;;4.1;0;;;
HAR03;2018;12;3;18;31;48;;;;;;;;;;;;1;;;;4.1;0;;;
HAR03;2018;12;3;18;31;49;;;;;;;;;;;;1;;;;4.1;0;;;
HAR03;2018;12;3;18;31;50;;;;;;;;;;;;1;;;;4.1;0;;;
HAR03;2018;12;3;18;32;0;-37.854317;77.523900;0.1;35;4.1;14;;;;;;;;3751259S;07731434E;;0;;;
HAR03;2018;12;3;18;37;29;;;;;;;;;;;;1;;;;4.1;0;;;
HAR03;2018;12;3;18;37;30;;;;;;;;;;;;1;;;;4.1;0;;;
HAR03;2018;12;3;18;42;24;;;;;;;;;;;;1;;;;4.1;0;;;
HAR03;2018;12;3;18;42;25;;;;;;;;;;;;1;;;;4.1;0;;;
HAR03;2018;12;3;18;47;0;-37.854733;77.524067;0.4;19;4.1;14;;;;;;;;3751284S;07731444E;;0;;;
HAR03;2018;12;3;18;47;20;;;;;;;;;;;;1;;;;4.1;0;;;
HAR03;2018;12;3;18;47;21;;;;;;;;;;;;1;;;;4.1;0;;;
HAR03;2018;12;3;18;47;28;;;;;;;;;;;;1;;;;4.1;0;;;
HAR03;2018;12;3;18;47;29;;;;;;;;;;;;1;;;;4.1;0;;;
HAR03;2018;12;3;18;47;30;;;;;;;;;;;;1;;;;4.1;0;;;
HAR03;2018;12;3;18;52;55;;;;;;;;;;;;1;;;;4.1;0;;;
HAR03;2018;12;3;18;52;56;;;;;;;;;;;;1;;;;4.1;0;;;
HAR03;2018;12;3;18;57;49;;;;;;;;;;;;1;;;;4.1;0;;;
HAR03;2018;12;3;18;57;50;;;;;;;;;;;;1;;;;4.1;0;;;
HAR03;2018;12;3;19;2;45;;;;;;;;;;;;1;;;;4.1;0;;;
HAR03;2018;12;3;19;2;46;;;;;;;;;;;;1;;;;4.1;0;;;
HAR03;2018;12;3;19;2;53;;;;;;;;;;;;1;;;;4.1;0;;;
HAR03;2018;12;3;19;2;54;;;;;;;;;;;;1;;;;4.1;0;;;
HAR03;2018;12;3;19;2;55;;;;;;;;;;;;1;;;;4.1;0;;;
HAR03;2018;12;3;19;3;0;-37.854850;77.524167;1.3;14;4.1;15;;;;;;;;3751291S;07731450E;;0;;;
HAR03;2018;12;3;19;8;15;;;;;;;;;;;;1;;;;4.1;0;;;
HAR03;2018;12;3;19;8;16;;;;;;;;;;;;1;;;;4.1;0;;;
HAR03;2018;12;3;19;13;9;;;;;;;;;;;;1;;;;4.1;0;;;
HAR03;2018;12;3;19;13;10;;;;;;;;;;;;1;;;;4.1;0;;;
HAR03;2018;12;3;19;18;0;-37.854950;77.524017;0.6;29;4.1;16.5;;;;;;;;3751297S;07731441E;;0;;;
HAR03;2018;12;3;19;18;5;;;;;;;;;;;;1;;;;4.1;0;;;
HAR03;2018;12;3;19;18;6;;;;;;;;;;;;1;;;;4.1;0;;;
HAR03;2018;12;3;19;18;14;;;;;;;;;;;;1;;;;4.1;0;;;
HAR03;2018;12;3;19;18;15;;;;;;;;;;;;1;;;;4.1;0;;;
HAR03;2018;12;3;19;23;51;;;;;;;;;;;;1;;;;4.09;0;;;
HAR03;2018;12;3;19;23;52;;;;;;;;;;;;1;;;;4.09;0;;;
HAR03;2018;12;3;19;28;45;;;;;;;;;;;;1;;;;4.1;0;;;
HAR03;2018;12;3;19;28;46;;;;;;;;;;;;1;;;;4.09;0;;;
HAR03;2018;12;3;19;33;41;;;;;;;;;;;;1;;;;4.1;0;;;
HAR03;2018;12;3;19;33;42;;;;;;;;;;;;1;;;;4.09;0;;;
HAR03;2018;12;3;19;33;49;;;;;;;;;;;;1;;;;4.09;0;;;
HAR03;2018;12;3;19;33;50;;;;;;;;;;;;1;;;;4.09;0;;;
HAR03;2018;12;3;19;33;51;;;;;;;;;;;;1;;;;4.09;0;;;
HAR03;2018;12;3;19;34;0;-37.854917;77.523950;0.3;14;4.09;17;;;;;;;;3751295S;07731437E;;0;;;
HAR03;2018;12;3;19;39;11;;;;;;;;;;;;1;;;;4.09;0;;;
HAR03;2018;12;3;19;39;12;;;;;;;;;;;;1;;;;4.09;0;;;
HAR03;2018;12;3;19;44;6;;;;;;;;;;;;1;;;;4.1;0;;;
HAR03;2018;12;3;19;44;7;;;;;;;;;;;;1;;;;4.09;0;;;
HAR03;2018;12;3;19;49;2;;;;;;;;;;;;1;;;;4.09;0;;;
HAR03;2018;12;3;19;49;3;;;;;;;;;;;;1;;;;4.09;0;;;
HAR03;2018;12;3;19;49;10;;;;;;;;;;;;1;;;;4.09;0;;;
HAR03;2018;12;3;19;49;11;;;;;;;;;;;;1;;;;4.09;0;;;
HAR03;2018;12;3;19;49;12;;;;;;;;;;;;1;;;;4.09;0;;;
HAR03;2018;12;3;19;50;0;-37.854683;77.524050;0.1;43;4.09;17;;;;;;;;3751281S;07731443E;;0;;;
HAR03;2018;12;3;19;55;0;;;;;;;;;;;;1;;;;4.09;0;;;
HAR03;2018;12;3;19;55;1;;;;;;;;;;;;1;;;;4.09;0;;;
HAR03;2018;12;3;19;59;54;;;;;;;;;;;;1;;;;4.09;0;;;
HAR03;2018;12;3;19;59;55;;;;;;;;;;;;1;;;;4.09;0;;;
HAR03;2018;12;3;20;4;50;;;;;;;;;;;;1;;;;4.09;0;;;
HAR03;2018;12;3;20;4;51;;;;;;;;;;;;1;;;;4.09;0;;;
HAR03;2018;12;3;20;4;58;;;;;;;;;;;;1;;;;4.09;0;;;
HAR03;2018;12;3;20;4;59;;;;;;;;;;;;1;;;;4.09;0;;;
HAR03;2018;12;3;20;5;0;;;;;;;;;;;;1;;;;4.09;0;;;
HAR03;2018;12;3;20;5;0;-37.854400;77.523850;1.3;8;4.09;17;;;;;;;;3751264S;07731431E;;0;;;
HAR03;2018;12;3;20;10;13;;;;;;;;;;;;1;;;;4.09;0;;;
HAR03;2018;12;3;20;10;14;;;;;;;;;;;;1;;;;4.09;0;;;
HAR03;2018;12;3;20;15;8;;;;;;;;;;;;1;;;;4.09;0;;;
HAR03;2018;12;3;20;15;9;;;;;;;;;;;;1;;;;4.09;0;;;
HAR03;2018;12;3;20;20;0;-37.854683;77.524017;1.0;11;4.09;17;;;;;;;;3751281S;07731441E;;0;;;
HAR03;2018;12;3;20;20;4;;;;;;;;;;;;1;;;;4.09;0;;;
HAR03;2018;12;3;20;20;5;;;;;;;;;;;;1;;;;4.09;0;;;
HAR03;2018;12;3;20;20;12;;;;;;;;;;;;1;;;;4.09;0;;;
HAR03;2018;12;3;20;20;13;;;;;;;;;;;;1;;;;4.09;0;;;
HAR03;2018;12;3;20;20;14;;;;;;;;;;;;1;;;;4.09;0;;;
HAR03;2018;12;3;20;25;31;;;;;;;;;;;;1;;;;4.09;0;;;
HAR03;2018;12;3;20;25;32;;;;;;;;;;;;1;;;;4.09;0;;;
HAR03;2018;12;3;20;30;25;;;;;;;;;;;;1;;;;4.09;0;;;
HAR03;2018;12;3;20;30;26;;;;;;;;;;;;1;;;;4.09;0;;;
HAR03;2018;12;3;20;35;21;;;;;;;;;;;;1;;;;4.09;0;;;
HAR03;2018;12;3;20;35;22;;;;;;;;;;;;1;;;;4.09;0;;;
HAR03;2018;12;3;20;35;29;;;;;;;;;;;;1;;;;4.09;0;;;
HAR03;2018;12;3;20;35;30;;;;;;;;;;;;1;;;;4.09;0;;;
HAR03;2018;12;3;20;35;31;;;;;;;;;;;;1;;;;4.09;0;;;
HAR03;2018;12;3;20;37;0;-37.854717;77.524067;0.6;114;4.09;17.5;;;;;;;;3751283S;07731444E;;0;;;
HAR03;2018;12;3;20;42;31;;;;;;;;;;;;1;;;;4.08;0;;;
HAR03;2018;12;3;20;42;32;;;;;;;;;;;;1;;;;4.08;0;;;
HAR03;2018;12;3;20;47;26;;;;;;;;;;;;1;;;;4.08;0;;;
HAR03;2018;12;3;20;47;27;;;;;;;;;;;;1;;;;4.08;0;;;
HAR03;2018;12;3;20;52;0;-37.855050;77.523983;0.7;16;4.08;17.5;;;;;;;;3751303S;07731439E;;0;;;
HAR03;2018;12;3;20;52;22;;;;;;;;;;;;1;;;;4.08;0;;;
HAR03;2018;12;3;20;52;23;;;;;;;;;;;;1;;;;4.08;0;;;
HAR03;2018;12;3;20;52;30;;;;;;;;;;;;1;;;;4.08;0;;;
HAR03;2018;12;3;20;52;31;;;;;;;;;;;;1;;;;4.08;0;;;
HAR03;2018;12;3;20;52;32;;;;;;;;;;;;1;;;;4.08;0;;;
HAR03;2018;12;3;20;57;53;;;;;;;;;;;;1;;;;4.08;0;;;
HAR03;2018;12;3;20;57;54;;;;;;;;;;;;1;;;;4.08;0;;;
HAR03;2018;12;3;21;2;48;;;;;;;;;;;;1;;;;4.08;0;;;
HAR03;2018;12;3;21;2;49;;;;;;;;;;;;1;;;;4.08;0;;;
HAR03;2018;12;3;21;7;45;;;;;;;;;;;;1;;;;4.08;0;;;
HAR03;2018;12;3;21;7;46;;;;;;;;;;;;1;;;;4.08;0;;;
HAR03;2018;12;3;21;7;52;;;;;;;;;;;;1;;;;4.08;0;;;
HAR03;2018;12;3;21;7;53;;;;;;;;;;;;1;;;;4.08;0;;;
HAR03;2018;12;3;21;7;54;;;;;;;;;;;;1;;;;4.08;0;;;
HAR03;2018;12;3;21;8;0;-37.854900;77.523983;1.9;16;4.08;16.5;;;;;;;;3751294S;07731439E;;0;;;
HAR03;2018;12;3;21;13;15;;;;;;;;;;;;1;;;;4.08;0;;;
HAR03;2018;12;3;21;13;16;;;;;;;;;;;;1;;;;4.08;0;;;
HAR03;2018;12;3;21;18;10;;;;;;;;;;;;1;;;;4.08;0;;;
HAR03;2018;12;3;21;18;11;;;;;;;;;;;;1;;;;4.08;0;;;
HAR03;2018;12;3;21;23;0;-37.854833;77.523933;0.2;16;4.08;17;;;;;;;;3751290S;07731436E;;0;;;
HAR03;2018;12;3;21;23;6;;;;;;;;;;;;1;;;;4.08;0;;;
HAR03;2018;12;3;21;23;7;;;;;;;;;;;;1;;;;4.08;0;;;
HAR03;2018;12;3;21;23;14;;;;;;;;;;;;1;;;;4.08;0;;;
HAR03;2018;12;3;21;23;15;;;;;;;;;;;;1;;;;4.08;0;;;
HAR03;2018;12;3;21;23;16;;;;;;;;;;;;1;;;;4.08;0;;;
HAR03;2018;12;3;21;28;37;;;;;;;;;;;;1;;;;4.08;0;;;
HAR03;2018;12;3;21;28;38;;;;;;;;;;;;1;;;;4.08;0;;;
HAR03;2018;12;3;21;33;32;;;;;;;;;;;;1;;;;4.08;0;;;
HAR03;2018;12;3;21;33;33;;;;;;;;;;;;1;;;;4.08;0;;;
HAR03;2018;12;3;21;38;28;;;;;;;;;;;;1;;;;4.08;0;;;
HAR03;2018;12;3;21;38;29;;;;;;;;;;;;1;;;;4.08;0;;;
HAR03;2018;12;3;21;38;36;;;;;;;;;;;;1;;;;4.08;0;;;
HAR03;2018;12;3;21;38;37;;;;;;;;;;;;1;;;;4.08;0;;;
HAR03;2018;12;3;21;38;38;;;;;;;;;;;;1;;;;4.08;0;;;
HAR03;2018;12;3;21;39;0;-37.854617;77.524133;0.3;18;4.08;17;;;;;;;;3751277S;07731448E;;0;;;
HAR03;2018;12;3;21;44;2;;;;;;;;;;;;1;;;;4.08;0;;;
HAR03;2018;12;3;21;44;3;;;;;;;;;;;;1;;;;4.08;0;;;
HAR03;2018;12;3;21;48;56;;;;;;;;;;;;1;;;;4.08;0;;;
HAR03;2018;12;3;21;48;57;;;;;;;;;;;;1;;;;4.08;0;;;
HAR03;2018;12;3;21;53;52;;;;;;;;;;;;1;;;;4.08;0;;;
HAR03;2018;12;3;21;53;53;;;;;;;;;;;;1;;;;4.08;0;;;
HAR03;2018;12;3;21;54;0;-37.854667;77.524133;0.3;12;4.08;16.5;;;;;;;;3751280S;07731448E;;0;;;
HAR03;2018;12;3;21;54;0;;;;;;;;;;;;1;;;;4.08;0;;;
HAR03;2018;12;3;21;54;1;;;;;;;;;;;;1;;;;4.08;0;;;
HAR03;2018;12;3;21;54;2;;;;;;;;;;;;1;;;;4.08;0;;;
HAR03;2018;12;3;21;59;18;;;;;;;;;;;;1;;;;4.08;0;;;
HAR03;2018;12;3;21;59;19;;;;;;;;;;;;1;;;;4.08;0;;;
HAR03;2018;12;3;22;4;13;;;;;;;;;;;;1;;;;4.08;0;;;
HAR03;2018;12;3;22;4;14;;;;;;;;;;;;1;;;;4.08;0;;;
HAR03;2018;12;3;22;9;9;;;;;;;;;;;;1;;;;4.08;0;;;
HAR03;2018;12;3;22;9;10;;;;;;;;;;;;1;;;;4.08;0;;;
HAR03;2018;12;3;22;9;17;;;;;;;;;;;;1;;;;4.08;0;;;
HAR03;2018;12;3;22;9;18;;;;;;;;;;;;1;;;;4.08;0;;;
HAR03;2018;12;3;22;9;20;;;;;;;;;;;;1;;;;4.08;0;;;
HAR03;2018;12;3;22;10;0;-37.854467;77.524067;0.5;46;4.08;16.5;;;;;;;;3751268S;07731444E;;0;;;
HAR03;2018;12;3;22;15;14;;;;;;;;;;;;1;;;;4.08;0;;;
HAR03;2018;12;3;22;20;7;;;;;;;;;;;;1;;;;4.08;0;;;
HAR03;2018;12;3;22;20;8;;;;;;;;;;;;1;;;;4.08;0;;;
HAR03;2018;12;3;22;25;3;;;;;;;;;;;;1;;;;4.08;0;;;
HAR03;2018;12;3;22;25;4;;;;;;;;;;;;1;;;;4.08;0;;;
HAR03;2018;12;3;22;25;11;;;;;;;;;;;;1;;;;4.08;0;;;
HAR03;2018;12;3;22;25;13;;;;;;;;;;;;1;;;;4.08;0;;;
HAR03;2018;12;3;22;25;14;;;;;;;;;;;;1;;;;4.08;0;;;
HAR03;2018;12;3;22;26;0;-37.854667;77.524100;0.1;40;4.08;15.5;;;;;;;;3751280S;07731446E;;0;;;
HAR03;2018;12;3;22;30;59;;;;;;;;;;;;1;;;;4.08;0;;;
HAR03;2018;12;3;22;31;0;;;;;;;;;;;;1;;;;4.08;0;;;
HAR03;2018;12;3;22;35;54;;;;;;;;;;;;1;;;;4.08;0;;;
HAR03;2018;12;3;22;35;55;;;;;;;;;;;;1;;;;4.08;0;;;
HAR03;2018;12;3;22;40;50;;;;;;;;;;;;1;;;;4.08;0;;;
HAR03;2018;12;3;22;40;51;;;;;;;;;;;;1;;;;4.08;0;;;
HAR03;2018;12;3;22;40;58;;;;;;;;;;;;1;;;;4.08;0;;;
HAR03;2018;12;3;22;40;59;;;;;;;;;;;;1;;;;4.08;0;;;
HAR03;2018;12;3;22;41;0;;;;;;;;;;;;1;;;;4.08;0;;;
HAR03;2018;12;3;22;41;0;-37.854867;77.523633;0.4;6;4.08;16.5;;;;;;;;3751292S;07731418E;;0;;;
HAR03;2018;12;3;22;46;11;;;;;;;;;;;;1;;;;4.08;0;;;
HAR03;2018;12;3;22;46;12;;;;;;;;;;;;1;;;;4.08;0;;;
HAR03;2018;12;3;22;51;6;;;;;;;;;;;;1;;;;4.08;0;;;
HAR03;2018;12;3;22;51;7;;;;;;;;;;;;1;;;;4.08;0;;;
HAR03;2018;12;3;22;56;0;-37.853867;77.525750;1.1;7;4.08;15.5;;;;;;;;3751232S;07731545E;;0;;;
HAR03;2018;12;3;22;56;2;;;;;;;;;;;;1;;;;4.08;0;;;
HAR03;2018;12;3;22;56;3;;;;;;;;;;;;1;;;;4.08;0;;;
HAR03;2018;12;3;22;56;10;;;;;;;;;;;;1;;;;4.08;0;;;
HAR03;2018;12;3;22;56;11;;;;;;;;;;;;1;;;;4.08;0;;;
HAR03;2018;12;3;23;1;24;;;;;;;;;;;;1;;;;4.08;0;;;
HAR03;2018;12;3;23;1;25;;;;;;;;;;;;1;;;;4.08;0;;;
HAR03;2018;12;3;23;6;19;;;;;;;;;;;;1;;;;4.08;0;;;
HAR03;2018;12;3;23;6;20;;;;;;;;;;;;1;;;;4.08;0;;;
HAR03;2018;12;3;23;11;0;-37.854750;77.523817;1.4;6;4.08;15.5;;;;;;;;3751285S;07731429E;;0;;;
HAR03;2018;12;3;23;11;15;;;;;;;;;;;;1;;;;4.08;0;;;
HAR03;2018;12;3;23;11;16;;;;;;;;;;;;1;;;;4.08;0;;;
HAR03;2018;12;3;23;11;23;;;;;;;;;;;;1;;;;4.08;0;;;
HAR03;2018;12;3;23;11;24;;;;;;;;;;;;1;;;;4.08;0;;;
HAR03;2018;12;3;23;11;26;;;;;;;;;;;;1;;;;4.08;0;;;
HAR03;2018;12;3;23;16;38;;;;;;;;;;;;1;;;;4.08;0;;;
HAR03;2018;12;3;23;16;39;;;;;;;;;;;;1;;;;4.08;0;;;
HAR03;2018;12;3;23;21;33;;;;;;;;;;;;1;;;;4.08;0;;;
HAR03;2018;12;3;23;21;34;;;;;;;;;;;;1;;;;4.08;0;;;
HAR03;2018;12;3;23;26;29;;;;;;;;;;;;1;;;;4.08;0;;;
HAR03;2018;12;3;23;26;30;;;;;;;;;;;;1;;;;4.08;0;;;
HAR03;2018;12;3;23;26;37;;;;;;;;;;;;1;;;;4.08;0;;;
HAR03;2018;12;3;23;26;38;;;;;;;;;;;;1;;;;4.08;0;;;
HAR03;2018;12;3;23;26;39;;;;;;;;;;;;1;;;;4.08;0;;;
HAR03;2018;12;3;23;27;0;-37.854650;77.524017;1.1;20;4.08;15.5;;;;;;;;3751279S;07731441E;;0;;;
HAR03;2018;12;3;23;32;3;;;;;;;;;;;;1;;;;4.08;0;;;
HAR03;2018;12;3;23;32;4;;;;;;;;;;;;1;;;;4.08;0;;;
HAR03;2018;12;3;23;36;58;;;;;;;;;;;;1;;;;4.08;0;;;
HAR03;2018;12;3;23;36;59;;;;;;;;;;;;1;;;;4.08;0;;;
HAR03;2018;12;3;23;41;54;;;;;;;;;;;;1;;;;4.08;0;;;
HAR03;2018;12;3;23;41;55;;;;;;;;;;;;1;;;;4.08;0;;;
HAR03;2018;12;3;23;42;0;-37.854650;77.524067;0.5;12;4.08;16.5;;;;;;;;3751279S;07731444E;;0;;;
HAR03;2018;12;3;23;42;2;;;;;;;;;;;;1;;;;4.08;0;;;
HAR03;2018;12;3;23;42;3;;;;;;;;;;;;1;;;;4.08;0;;;
HAR03;2018;12;3;23;42;4;;;;;;;;;;;;1;;;;4.08;0;;;
HAR03;2018;12;3;23;47;24;;;;;;;;;;;;1;;;;4.08;0;;;
HAR03;2018;12;3;23;47;25;;;;;;;;;;;;1;;;;4.08;0;;;
HAR03;2018;12;3;23;52;18;;;;;;;;;;;;1;;;;4.08;0;;;
HAR03;2018;12;3;23;52;19;;;;;;;;;;;;1;;;;4.08;0;;;
HAR03;2018;12;3;23;57;0;-37.854633;77.524100;6.7;26;4.08;17;;;;;;;;3751278S;07731446E;;0;;;
HAR03;2018;12;3;23;57;14;;;;;;;;;;;;1;;;;4.08;0;;;
HAR03;2018;12;3;23;57;15;;;;;;;;;;;;1;;;;4.08;0;;;
HAR03;2018;12;3;23;57;22;;;;;;;;;;;;1;;;;4.08;0;;;
HAR03;2018;12;3;23;57;23;;;;;;;;;;;;1;;;;4.08;0;;;
HAR03;2018;12;3;23;57;24;;;;;;;;;;;;1;;;;4.08;0;;;
HAR03;2018;12;4;0;2;54;;;;;;;;;;;;1;;;;4.08;0;;;
HAR03;2018;12;4;0;2;55;;;;;;;;;;;;1;;;;4.07;0;;;
HAR03;2018;12;4;0;7;49;;;;;;;;;;;;1;;;;4.08;0;;;
HAR03;2018;12;4;0;7;50;;;;;;;;;;;;1;;;;4.08;0;;;
HAR03;2018;12;4;0;12;45;;;;;;;;;;;;1;;;;4.08;0;;;
HAR03;2018;12;4;0;12;46;;;;;;;;;;;;1;;;;4.08;0;;;
HAR03;2018;12;4;0;12;53;;;;;;;;;;;;1;;;;4.08;0;;;
HAR03;2018;12;4;0;12;54;;;;;;;;;;;;1;;;;4.08;0;;;
HAR03;2018;12;4;0;12;55;;;;;;;;;;;;1;;;;4.08;0;;;
HAR03;2018;12;4;0;13;0;-37.854683;77.524167;0.3;20;4.08;17.5;;;;;;;;3751281S;07731450E;;0;;;
HAR03;2018;12;4;0;18;21;;;;;;;;;;;;1;;;;4.07;0;;;
HAR03;2018;12;4;0;18;22;;;;;;;;;;;;1;;;;4.07;0;;;
HAR03;2018;12;4;0;23;15;;;;;;;;;;;;1;;;;4.08;0;;;
HAR03;2018;12;4;0;23;16;;;;;;;;;;;;1;;;;4.07;0;;;
HAR03;2018;12;4;0;28;11;;;;;;;;;;;;1;;;;4.08;0;;;
HAR03;2018;12;4;0;28;12;;;;;;;;;;;;1;;;;4.07;0;;;
HAR03;2018;12;4;0;28;19;;;;;;;;;;;;1;;;;4.08;0;;;
HAR03;2018;12;4;0;28;20;;;;;;;;;;;;1;;;;4.07;0;;;
HAR03;2018;12;4;0;28;21;;;;;;;;;;;;1;;;;4.07;0;;;
HAR03;2018;12;4;0;29;0;-37.854583;77.524183;0.8;34;4.07;18;;;;;;;;3751275S;07731451E;;0;;;
HAR03;2018;12;4;0;33;59;;;;;;;;;;;;1;;;;4.07;0;;;
HAR03;2018;12;4;0;34;0;;;;;;;;;;;;1;;;;4.07;0;;;
HAR03;2018;12;4;0;38;54;;;;;;;;;;;;1;;;;4.07;0;;;
HAR03;2018;12;4;0;38;55;;;;;;;;;;;;1;;;;4.07;0;;;
HAR03;2018;12;4;0;43;50;;;;;;;;;;;;1;;;;4.07;0;;;
HAR03;2018;12;4;0;43;51;;;;;;;;;;;;1;;;;4.07;0;;;
HAR03;2018;12;4;0;43;58;;;;;;;;;;;;1;;;;4.07;0;;;
HAR03;2018;12;4;0;43;59;;;;;;;;;;;;1;;;;4.07;0;;;
HAR03;2018;12;4;0;44;0;-37.854617;77.524333;1.8;7;4.07;18;;;;;;;;3751277S;07731460E;;0;;;
HAR03;2018;12;4;0;44;0;;;;;;;;;;;;1;;;;4.07;0;;;
HAR03;2018;12;4;0;49;14;;;;;;;;;;;;1;;;;4.07;0;;;
HAR03;2018;12;4;0;49;15;;;;;;;;;;;;1;;;;4.07;0;;;
HAR03;2018;12;4;0;54;8;;;;;;;;;;;;1;;;;4.07;0;;;
HAR03;2018;12;4;0;54;9;;;;;;;;;;;;1;;;;4.07;0;;;
HAR03;2018;12;4;0;59;4;;;;;;;;;;;;1;;;;4.07;0;;;
HAR03;2018;12;4;0;59;5;;;;;;;;;;;;1;;;;4.07;0;;;
HAR03;2018;12;4;0;59;12;;;;;;;;;;;;1;;;;4.07;0;;;
HAR03;2018;12;4;0;59;13;;;;;;;;;;;;1;;;;4.07;0;;;
HAR03;2018;12;4;0;59;14;;;;;;;;;;;;1;;;;4.07;0;;;
HAR03;2018;12;4;1;0;0;-37.854600;77.524100;0.3;40;4.07;18;;;;;;;;3751276S;07731446E;;0;;;
HAR03;2018;12;4;1;4;59;;;;;;;;;;;;1;;;;4.07;0;;;
HAR03;2018;12;4;1;5;0;;;;;;;;;;;;1;;;;4.06;0;;;
HAR03;2018;12;4;1;9;54;;;;;;;;;;;;1;;;;4.07;0;;;
HAR03;2018;12;4;1;9;55;;;;;;;;;;;;1;;;;4.07;0;;;
HAR03;2018;12;4;1;14;50;;;;;;;;;;;;1;;;;4.07;0;;;
HAR03;2018;12;4;1;14;51;;;;;;;;;;;;1;;;;4.07;0;;;
HAR03;2018;12;4;1;14;58;;;;;;;;;;;;1;;;;4.07;0;;;
HAR03;2018;12;4;1;14;59;;;;;;;;;;;;1;;;;4.07;0;;;
HAR03;2018;12;4;1;15;0;;;;;;;;;;;;1;;;;4.07;0;;;
HAR03;2018;12;4;1;15;0;-37.854483;77.524083;0.5;7;4.07;17.5;;;;;;;;3751269S;07731445E;;0;;;
HAR03;2018;12;4;1;20;13;;;;;;;;;;;;1;;;;4.07;0;;;
HAR03;2018;12;4;1;20;14;;;;;;;;;;;;1;;;;4.07;0;;;
HAR03;2018;12;4;1;25;7;;;;;;;;;;;;1;;;;4.07;0;;;
HAR03;2018;12;4;1;25;8;;;;;;;;;;;;1;;;;4.07;0;;;
HAR03;2018;12;4;1;30;0;-37.854550;77.524200;0.2;9;4.07;18.5;;;;;;;;3751273S;07731452E;;0;;;
HAR03;2018;12;4;1;30;3;;;;;;;;;;;;1;;;;4.07;0;;;
HAR03;2018;12;4;1;30;4;;;;;;;;;;;;1;;;;4.07;0;;;
HAR03;2018;12;4;1;30;11;;;;;;;;;;;;1;;;;4.07;0;;;
HAR03;2018;12;4;1;30;12;;;;;;;;;;;;1;;;;4.07;0;;;
HAR03;2018;12;4;1;30;13;;;;;;;;;;;;1;;;;4.07;0;;;
HAR03;2018;12;4;1;35;27;;;;;;;;;;;;1;;;;4.07;0;;;
HAR03;2018;12;4;1;35;28;;;;;;;;;;;;1;;;;4.06;0;;;
HAR03;2018;12;4;1;40;22;;;;;;;;;;;;1;;;;4.07;0;;;
HAR03;2018;12;4;1;40;23;;;;;;;;;;;;1;;;;4.07;0;;;
HAR03;2018;12;4;1;45;0;-37.854683;77.524017;0.2;5;4.07;18.5;;;;;;;;3751281S;07731441E;;0;;;
HAR03;2018;12;4;1;45;18;;;;;;;;;;;;1;;;;4.07;0;;;
HAR03;2018;12;4;1;45;19;;;;;;;;;;;;1;;;;4.07;0;;;
HAR03;2018;12;4;1;45;26;;;;;;;;;;;;1;;;;4.07;0;;;
HAR03;2018;12;4;1;45;27;;;;;;;;;;;;1;;;;4.07;0;;;
HAR03;2018;12;4;1;45;28;;;;;;;;;;;;1;;;;4.07;0;;;
HAR03;2018;12;4;1;50;39;;;;;;;;;;;;1;;;;4.07;0;;;
HAR03;2018;12;4;1;50;40;;;;;;;;;;;;1;;;;4.07;0;;;
HAR03;2018;12;4;1;55;33;;;;;;;;;;;;1;;;;4.07;0;;;
HAR03;2018;12;4;1;55;34;;;;;;;;;;;;1;;;;4.07;0;;;
HAR03;2018;12;4;2;0;0;-37.854683;77.524100;0.9;12;4.07;19.5;;;;;;;;3751281S;07731446E;;0;;;
HAR03;2018;12;4;2;0;29;;;;;;;;;;;;1;;;;4.07;0;;;
HAR03;2018;12;4;2;0;30;;;;;;;;;;;;1;;;;4.07;0;;;
HAR03;2018;12;4;2;0;37;;;;;;;;;;;;1;;;;4.07;0;;;
HAR03;2018;12;4;2;0;38;;;;;;;;;;;;1;;;;4.07;0;;;
HAR03;2018;12;4;2;0;39;;;;;;;;;;;;1;;;;4.07;0;;;
HAR03;2018;12;4;2;5;59;;;;;;;;;;;;1;;;;4.07;0;;;
HAR03;2018;12;4;2;6;2;;;;;;;;;;;;1;;;;4.07;0;;;
HAR03;2018;12;4;2;10;52;;;;;;;;;;;;1;;;;4.07;0;;;
HAR03;2018;12;4;2;10;53;;;;;;;;;;;;1;;;;4.07;0;;;
HAR03;2018;12;4;2;15;48;;;;;;;;;;;;1;;;;4.07;0;;;
HAR03;2018;12;4;2;15;49;;;;;;;;;;;;1;;;;4.07;0;;;
HAR03;2018;12;4;2;15;56;;;;;;;;;;;;1;;;;4.07;0;;;
HAR03;2018;12;4;2;15;57;;;;;;;;;;;;1;;;;4.07;0;;;
HAR03;2018;12;4;2;15;58;;;;;;;;;;;;1;;;;4.07;0;;;
HAR03;2018;12;4;2;16;0;-37.854667;77.524133;0.4;10;4.07;19.5;;;;;;;;3751280S;07731448E;;0;;;
HAR03;2018;12;4;2;21;12;;;;;;;;;;;;1;;;;4.07;0;;;
HAR03;2018;12;4;2;21;13;;;;;;;;;;;;1;;;;4.07;0;;;
HAR03;2018;12;4;2;26;7;;;;;;;;;;;;1;;;;4.07;0;;;
HAR03;2018;12;4;2;26;8;;;;;;;;;;;;1;;;;4.07;0;;;
HAR03;2018;12;4;2;31;0;-37.854633;77.524050;0.7;12;4.07;19.5;;;;;;;;3751278S;07731443E;;0;;;
HAR03;2018;12;4;2;31;3;;;;;;;;;;;;1;;;;4.07;0;;;
HAR03;2018;12;4;2;31;4;;;;;;;;;;;;1;;;;4.07;0;;;
HAR03;2018;12;4;2;31;11;;;;;;;;;;;;1;;;;4.07;0;;;
HAR03;2018;12;4;2;31;12;;;;;;;;;;;;1;;;;4.07;0;;;
HAR03;2018;12;4;2;31;13;;;;;;;;;;;;1;;;;4.07;0;;;
HAR03;2018;12;4;2;36;31;;;;;;;;;;;;1;;;;4.07;0;;;
HAR03;2018;12;4;2;36;32;;;;;;;;;;;;1;;;;4.07;0;;;
HAR03;2018;12;4;2;41;26;;;;;;;;;;;;1;;;;4.07;0;;;
HAR03;2018;12;4;2;41;27;;;;;;;;;;;;1;;;;4.07;0;;;
HAR03;2018;12;4;2;46;22;;;;;;;;;;;;1;;;;4.07;0;;;
HAR03;2018;12;4;2;46;23;;;;;;;;;;;;1;;;;4.07;0;;;
HAR03;2018;12;4;2;46;30;;;;;;;;;;;;1;;;;4.07;0;;;
HAR03;2018;12;4;2;46;31;;;;;;;;;;;;1;;;;4.07;0;;;
HAR03;2018;12;4;2;46;32;;;;;;;;;;;;1;;;;4.07;0;;;
HAR03;2018;12;4;2;47;0;-37.854717;77.524183;0.0;52;4.07;20.5;;;;;;;;3751283S;07731451E;;0;;;
HAR03;2018;12;4;2;52;30;;;;;;;;;;;;1;;;;4.07;0;;;
HAR03;2018;12;4;2;52;31;;;;;;;;;;;;1;;;;4.07;0;;;
HAR03;2018;12;4;2;57;24;;;;;;;;;;;;1;;;;4.07;0;;;
HAR03;2018;12;4;2;57;26;;;;;;;;;;;;1;;;;4.07;0;;;
HAR03;2018;12;4;3;2;20;;;;;;;;;;;;1;;;;4.07;0;;;
HAR03;2018;12;4;3;2;21;;;;;;;;;;;;1;;;;4.07;0;;;
HAR03;2018;12;4;3;2;28;;;;;;;;;;;;1;;;;4.07;0;;;
HAR03;2018;12;4;3;2;29;;;;;;;;;;;;1;;;;4.07;0;;;
HAR03;2018;12;4;3;2;30;;;;;;;;;;;;1;;;;4.07;0;;;
HAR03;2018;12;4;3;3;0;-37.854700;77.524150;1.4;48;4.07;19.5;;;;;;;;3751282S;07731449E;;0;;;
HAR03;2018;12;4;3;8;24;;;;;;;;;;;;1;;;;4.06;0;;;
HAR03;2018;12;4;3;8;25;;;;;;;;;;;;1;;;;4.06;0;;;
HAR03;2018;12;4;3;13;18;;;;;;;;;;;;1;;;;4.06;0;;;
HAR03;2018;12;4;3;13;20;;;;;;;;;;;;1;;;;4.06;0;;;
HAR03;2018;12;4;3;18;0;-37.854517;77.524183;0.1;26;4.07;19.5;;;;;;;;3751271S;07731451E;;0;;;
HAR03;2018;12;4;3;18;14;;;;;;;;;;;;1;;;;4.07;0;;;
HAR03;2018;12;4;3;18;15;;;;;;;;;;;;1;;;;4.06;0;;;
HAR03;2018;12;4;3;18;22;;;;;;;;;;;;1;;;;4.07;0;;;
HAR03;2018;12;4;3;18;23;;;;;;;;;;;;1;;;;4.06;0;;;
HAR03;2018;12;4;3;18;24;;;;;;;;;;;;1;;;;4.07;0;;;
HAR03;2018;12;4;3;23;55;;;;;;;;;;;;1;;;;4.06;0;;;
HAR03;2018;12;4;3;23;56;;;;;;;;;;;;1;;;;4.06;0;;;
HAR03;2018;12;4;3;28;50;;;;;;;;;;;;1;;;;4.07;0;;;
HAR03;2018;12;4;3;28;51;;;;;;;;;;;;1;;;;4.06;0;;;
HAR03;2018;12;4;3;33;46;;;;;;;;;;;;1;;;;4.07;0;;;
HAR03;2018;12;4;3;33;47;;;;;;;;;;;;1;;;;4.06;0;;;
HAR03;2018;12;4;3;33;54;;;;;;;;;;;;1;;;;4.07;0;;;
HAR03;2018;12;4;3;33;55;;;;;;;;;;;;1;;;;4.06;0;;;
HAR03;2018;12;4;3;33;56;;;;;;;;;;;;1;;;;4.06;0;;;
HAR03;2018;12;4;3;34;0;-37.854633;77.524050;0.9;15;4.06;22;;;;;;;;3751278S;07731443E;;0;;;
HAR03;2018;12;4;3;39;15;;;;;;;;;;;;1;;;;4.06;0;;;
HAR03;2018;12;4;3;39;16;;;;;;;;;;;;1;;;;4.06;0;;;
HAR03;2018;12;4;3;44;10;;;;;;;;;;;;1;;;;4.07;0;;;
HAR03;2018;12;4;3;44;11;;;;;;;;;;;;1;;;;4.07;0;;;
HAR03;2018;12;4;3;49;0;-37.854533;77.524033;1.0;28;4.07;22.5;;;;;;;;3751272S;07731442E;;0;;;
HAR03;2018;12;4;3;49;6;;;;;;;;;;;;1;;;;4.07;0;;;
HAR03;2018;12;4;3;49;7;;;;;;;;;;;;1;;;;4.07;0;;;
HAR03;2018;12;4;3;49;14;;;;;;;;;;;;1;;;;4.07;0;;;
HAR03;2018;12;4;3;49;15;;;;;;;;;;;;1;;;;4.07;0;;;
HAR03;2018;12;4;3;49;16;;;;;;;;;;;;1;;;;4.07;0;;;
HAR03;2018;12;4;3;54;49;;;;;;;;;;;;1;;;;4.06;0;;;
HAR03;2018;12;4;3;54;50;;;;;;;;;;;;1;;;;4.06;0;;;
HAR03;2018;12;4;3;59;44;;;;;;;;;;;;1;;;;4.07;0;;;
HAR03;2018;12;4;3;59;45;;;;;;;;;;;;1;;;;4.07;0;;;
HAR03;2018;12;4;4;4;40;;;;;;;;;;;;1;;;;4.07;0;;;
HAR03;2018;12;4;4;4;41;;;;;;;;;;;;1;;;;4.07;0;;;
HAR03;2018;12;4;4;4;48;;;;;;;;;;;;1;;;;4.07;0;;;
HAR03;2018;12;4;4;4;49;;;;;;;;;;;;1;;;;4.07;0;;;
HAR03;2018;12;4;4;4;50;;;;;;;;;;;;1;;;;4.07;0;;;
HAR03;2018;12;4;4;5;0;-37.854633;77.524183;0.8;9;4.07;20;;;;;;;;3751278S;07731451E;;0;;;
HAR03;2018;12;4;4;10;3;;;;;;;;;;;;1;;;;4.07;0;;;
HAR03;2018;12;4;4;10;4;;;;;;;;;;;;1;;;;4.07;0;;;
HAR03;2018;12;4;4;14;58;;;;;;;;;;;;1;;;;4.07;0;;;
HAR03;2018;12;4;4;14;59;;;;;;;;;;;;1;;;;4.07;0;;;
HAR03;2018;12;4;4;19;54;;;;;;;;;;;;1;;;;4.08;0;;;
HAR03;2018;12;4;4;19;55;;;;;;;;;;;;1;;;;4.07;0;;;
HAR03;2018;12;4;4;20;0;-37.854733;77.523983;1.3;7;4.07;25;;;;;;;;3751284S;07731439E;;0;;;
HAR03;2018;12;4;4;20;2;;;;;;;;;;;;1;;;;4.08;0;;;
HAR03;2018;12;4;4;20;3;;;;;;;;;;;;1;;;;4.07;0;;;
HAR03;2018;12;4;4;20;4;;;;;;;;;;;;1;;;;4.07;0;;;
HAR03;2018;12;4;4;25;18;;;;;;;;;;;;1;;;;4.07;0;;;
HAR03;2018;12;4;4;25;19;;;;;;;;;;;;1;;;;4.07;0;;;
HAR03;2018;12;4;4;30;12;;;;;;;;;;;;1;;;;4.08;0;;;
HAR03;2018;12;4;4;30;13;;;;;;;;;;;;1;;;;4.08;0;;;
HAR03;2018;12;4;4;35;0;-37.854617;77.524117;0.6;13;4.07;28.5;;;;;;;;3751277S;07731447E;;0;;;
HAR03;2018;12;4;4;35;8;;;;;;;;;;;;1;;;;4.08;0;;;
HAR03;2018;12;4;4;35;9;;;;;;;;;;;;1;;;;4.08;0;;;
HAR03;2018;12;4;4;35;16;;;;;;;;;;;;1;;;;4.08;0;;;
HAR03;2018;12;4;4;35;17;;;;;;;;;;;;1;;;;4.08;0;;;
HAR03;2018;12;4;4;35;18;;;;;;;;;;;;1;;;;4.07;0;;;
HAR03;2018;12;4;4;40;37;;;;;;;;;;;;1;;;;4.08;0;;;
HAR03;2018;12;4;4;40;38;;;;;;;;;;;;1;;;;4.07;0;;;
HAR03;2018;12;4;4;45;31;;;;;;;;;;;;1;;;;4.08;0;;;
HAR03;2018;12;4;4;45;32;;;;;;;;;;;;1;;;;4.07;0;;;
HAR03;2018;12;4;4;50;0;-37.854617;77.524083;2.3;13;4.08;29.5;;;;;;;;3751277S;07731445E;;0;;;
HAR03;2018;12;4;4;50;27;;;;;;;;;;;;1;;;;4.08;0;;;
HAR03;2018;12;4;4;50;28;;;;;;;;;;;;1;;;;4.08;0;;;
HAR03;2018;12;4;4;50;35;;;;;;;;;;;;1;;;;4.08;0;;;
HAR03;2018;12;4;4;50;36;;;;;;;;;;;;1;;;;4.08;0;;;
HAR03;2018;12;4;4;50;37;;;;;;;;;;;;1;;;;4.08;0;;;
HAR03;2018;12;4;4;55;56;;;;;;;;;;;;1;;;;4.08;0;;;
HAR03;2018;12;4;4;55;57;;;;;;;;;;;;1;;;;4.08;0;;;
HAR03;2018;12;4;5;0;51;;;;;;;;;;;;1;;;;4.08;0;;;
HAR03;2018;12;4;5;0;52;;;;;;;;;;;;1;;;;4.08;0;;;
HAR03;2018;12;4;5;5;47;;;;;;;;;;;;1;;;;4.08;0;;;
HAR03;2018;12;4;5;5;48;;;;;;;;;;;;1;;;;4.08;0;;;
HAR03;2018;12;4;5;5;55;;;;;;;;;;;;1;;;;4.08;0;;;
HAR03;2018;12;4;5;5;56;;;;;;;;;;;;1;;;;4.08;0;;;
