Logger ID;Year;Month;Day;Hour;Minute;Second;Latitude;Longitude;Speed;Searching time;Voltage;Temperature;Altitude;Div up;Div down;No GPS - timeout;No GPS - diving;In range;Diving duration;Raw latitude;Raw Longitude;Decision voltage;Milisecond;Acc_X;Acc_Y;Acc_Z
HAR02;2018;12;2;4;20;0;-37.854450;77.523950;0.5;25;4.08;19;;;;;;;;3751267S;07731437E;;0;;;
HAR02;2018;12;2;4;20;0;-37.854333;77.523967;1.1;9;4.08;19;;;;;;;;3751260S;07731438E;;0;;;
HAR02;2018;12;2;4;20;0;-37.854417;77.523950;1.8;20;4.08;19;;;;;;;;3751265S;07731437E;;0;;;
HAR02;2018;12;2;4;20;0;-37.854567;77.523883;0.7;9;4.08;19;;;;;;;;3751274S;07731433E;;0;;;
HAR02;2018;12;2;4;20;6;;;;;;;;;;;;1;;;;4.08;0;;;
HAR02;2018;12;2;4;20;17;;;;;;;;;;;;1;;;;4.08;0;;;
HAR02;2018;12;2;4;20;41;;;;;;;;;;;;1;;;;4.08;0;;;
HAR02;2018;12;2;4;25;49;;;;;;;;;;;;1;;;;4.08;0;;;
HAR02;2018;12;2;4;25;50;;;;;;;;;;;;1;;;;4.08;0;;;
HAR02;2018;12;2;4;30;43;;;;;;;;;;;;1;;;;4.08;0;;;
HAR02;2018;12;2;4;30;44;;;;;;;;;;;;1;;;;4.08;0;;;
HAR02;2018;12;2;4;35;39;;;;;;;;;;;;1;;;;4.08;0;;;
HAR02;2018;12;2;4;35;40;;;;;;;;;;;;1;;;;4.08;0;;;
HAR02;2018;12;2;4;35;47;;;;;;;;;;;;1;;;;4.08;0;;;
HAR02;2018;12;2;4;35;48;;;;;;;;;;;;1;;;;4.08;0;;;
HAR02;2018;12;2;4;35;49;;;;;;;;;;;;1;;;;4.08;0;;;
HAR02;2018;12;2;4;37;0;-37.854450;77.523850;0.2;74;4.08;21;;;;;;;;3751267S;07731431E;;0;;;
HAR02;2018;12;2;4;42;8;;;;;;;;;;;;1;;;;4.08;0;;;
HAR02;2018;12;2;4;42;9;;;;;;;;;;;;1;;;;4.08;0;;;
HAR02;2018;12;2;4;47;3;;;;;;;;;;;;1;;;;4.08;0;;;
HAR02;2018;12;2;4;47;4;;;;;;;;;;;;1;;;;4.08;0;;;
HAR02;2018;12;2;4;52;0;-37.837517;77.499250;25.;13;4.11;21;;;;;;;;3750251S;07729955E;;0;;;
HAR02;2018;12;2;5;8;0;-37.733900;77.491633;0.4;27;4.12;21;;;;;;;;3744034S;07729498E;;0;;;
HAR02;2018;12;2;5;23;0;-37.676017;77.461217;9.7;26;4.14;22;;;;;;;;3740561S;07727673E;;0;;;
HAR02;2018;12;2;5;38;0;-37.568500;77.395700;24.;2;4.12;24.5;;;;;;;;3734110S;07723742E;;0;;;
HAR02;2018;12;2;5;54;0;-37.474450;77.326067;31.;15;4.14;25;;;;;;;;3728467S;07719564E;;0;;;
HAR02;2018;12;2;6;11;0;-37.383867;77.242467;15.;36;4.14;25;;;;;;;;3723032S;07714548E;;0;;;
HAR02;2018;12;2;6;27;0;-37.297317;77.170283;18.;30;4.14;24.5;;;;;;;;3717839S;07710217E;;0;;;
HAR02;2018;12;2;6;45;0;-37.220483;77.098117;22.;140;4.14;25;;;;;;;;3713229S;07705887E;;0;;;
HAR02;2018;12;2;7;1;0;-37.158083;77.013383;32.;19;4.14;26;;;;;;;;3709485S;07700803E;;0;;;
HAR02;2018;12;2;7;19;38;;;;;;;;;;1;;;;;;;0;;;
HAR02;2018;12;2;7;37;0;-37.079983;76.866417;4.3;55;4.13;26;;;;;;;;3704799S;07651985E;;0;;;
HAR02;2018;12;2;7;52;0;-37.080533;76.868950;1.5;18;4.14;26;;;;;;;;3704832S;07652137E;;0;;;
HAR02;2018;12;2;8;7;0;-37.080867;76.871683;4.0;10;4.15;25.5;;;;;;;;3704852S;07652301E;;0;;;
HAR02;2018;12;2;8;22;0;-37.081417;76.874250;1.4;8;4.15;27;;;;;;;;3704885S;07652455E;;0;;;
HAR02;2018;12;2;8;38;0;-37.081517;76.877367;1.2;50;4.15;23;;;;;;;;3704891S;07652642E;;0;;;
HAR02;2018;12;2;8;54;0;-37.081467;76.880267;1.0;2;4.13;21.5;;;;;;;;3704888S;07652816E;;0;;;
HAR02;2018;12;2;9;9;0;-37.081500;76.883517;2.0;12;4.15;21;;;;;;;;3704890S;07653011E;;0;;;
HAR02;2018;12;2;9;24;0;-37.082183;76.887567;0.4;6;4.14;23.5;;;;;;;;3704931S;07653254E;;0;;;
HAR02;2018;12;2;9;39;0;-37.082083;76.891217;3.7;16;4.14;25;;;;;;;;3704925S;07653473E;;0;;;
HAR02;2018;12;2;9;55;0;-37.082217;76.895767;1.4;13;4.14;22;;;;;;;;3704933S;07653746E;;0;;;
HAR02;2018;12;2;10;10;0;-37.082067;76.900150;0.5;25;4.14;24.5;;;;;;;;3704924S;07654009E;;0;;;
HAR02;2018;12;2;10;27;0;-37.067617;76.900300;28.;73;4.15;23.5;;;;;;;;3704057S;07654018E;;0;;;
HAR02;2018;12;2;10;42;0;-37.013983;76.856583;5.3;11;4.12;22;;;;;;;;3700839S;07651395E;;0;;;
HAR02;2018;12;2;10;59;0;-37.000600;76.810633;11.;54;4.13;22.5;;;;;;;;3700036S;07648638E;;0;;;
HAR02;2018;12;2;11;15;0;-36.979467;76.769717;6.9;75;4.12;22;;;;;;;;3658768S;07646183E;;0;;;
HAR02;2018;12;2;11;31;0;-37.003667;76.783150;11.;43;4.15;21;;;;;;;;3700220S;07646989E;;0;;;
HAR02;2018;12;2;11;48;0;-37.009967;76.777783;0.4;52;4.12;22.5;;;;;;;;3700598S;07646667E;;0;;;
HAR02;2018;12;2;12;3;0;-37.010133;76.780767;1.5;13;4.12;20.5;;;;;;;;3700608S;07646846E;;0;;;
HAR02;2018;12;2;12;20;0;-37.010350;76.777050;22.;106;4.12;17;;;;;;;;3700621S;07646623E;;0;;;
HAR02;2018;12;2;12;35;0;-37.042367;76.802350;18.;14;4.12;17.5;;;;;;;;3702542S;07648141E;;0;;;
HAR02;2018;12;2;12;51;0;-37.060650;76.794933;19.;23;4.12;17.5;;;;;;;;3703639S;07647696E;;0;;;
HAR02;2018;12;2;13;7;0;-37.034817;76.740583;15.;93;4.12;17.5;;;;;;;;3702089S;07644435E;;0;;;
HAR02;2018;12;2;13;23;0;-37.054383;76.737000;11.;14;4.11;17.5;;;;;;;;3703263S;07644220E;;0;;;
HAR02;2018;12;2;13;38;0;-37.081917;76.739633;19.;26;4.11;18;;;;;;;;3704915S;07644378E;;0;;;
HAR02;2018;12;2;13;54;0;-37.104583;76.732300;9.0;19;4.11;17.5;;;;;;;;3706275S;07643938E;;0;;;
HAR02;2018;12;2;14;9;0;-37.136700;76.721383;14.;16;4.11;18.5;;;;;;;;3708202S;07643283E;;0;;;
HAR02;2018;12;2;14;25;0;-37.143633;76.705033;23.;59;4.11;18;;;;;;;;3708618S;07642302E;;0;;;
HAR02;2018;12;2;14;40;0;-37.169350;76.713450;6.3;5;4.1;18;;;;;;;;3710161S;07642807E;;0;;;
HAR02;2018;12;2;14;56;0;-37.167850;76.708433;8.6;21;4.1;18;;;;;;;;3710071S;07642506E;;0;;;
HAR02;2018;12;2;15;12;0;-37.189400;76.738967;17.;78;4.1;18;;;;;;;;3711364S;07644338E;;0;;;
HAR02;2018;12;2;15;28;0;-37.187583;76.743667;3.3;22;4.1;17.5;;;;;;;;3711255S;07644620E;;0;;;
HAR02;2018;12;2;15;43;0;-37.187567;76.747500;1.5;5;4.09;18.5;;;;;;;;3711254S;07644850E;;0;;;
HAR02;2018;12;2;15;58;0;-37.187183;76.751583;1.2;11;4.09;19;;;;;;;;3711231S;07645095E;;0;;;
HAR02;2018;12;2;16;13;0;-37.186683;76.755433;1.1;6;4.09;19;;;;;;;;3711201S;07645326E;;0;;;
HAR02;2018;12;2;16;28;0;-37.186250;76.759217;2.7;13;4.09;19;;;;;;;;3711175S;07645553E;;0;;;
HAR02;2018;12;2;16;44;0;-37.185667;76.763033;2.4;27;4.09;19;;;;;;;;3711140S;07645782E;;0;;;
HAR02;2018;12;2;16;59;0;-37.185100;76.766867;0.5;5;4.09;18.5;;;;;;;;3711106S;07646012E;;0;;;
HAR02;2018;12;2;17;14;0;-37.183967;76.770883;2.6;5;4.09;19;;;;;;;;3711038S;07646253E;;0;;;
HAR02;2018;12;2;17;30;0;-37.183633;76.774783;1.4;10;4.09;19.5;;;;;;;;3711018S;07646487E;;0;;;
HAR02;2018;12;2;17;45;0;-37.182983;76.778967;0.9;22;4.09;18.5;;;;;;;;3710979S;07646738E;;0;;;
HAR02;2018;12;2;18;0;0;-37.180550;76.782183;0.5;15;4.09;21;;;;;;;;3710833S;07646931E;;0;;;
HAR02;2018;12;2;18;16;0;-37.177683;76.785200;1.4;12;4.08;24.5;;;;;;;;3710661S;07647112E;;0;;;
HAR02;2018;12;2;18;32;0;-37.174233;76.788050;2.2;41;4.08;23.5;;;;;;;;3710454S;07647283E;;0;;;
HAR02;2018;12;2;18;47;0;-37.170733;76.790317;1.7;13;4.08;24;;;;;;;;3710244S;07647419E;;0;;;
HAR02;2018;12;2;19;2;0;-37.167283;76.791467;0.2;12;4.08;24;;;;;;;;3710037S;07647488E;;0;;;
HAR02;2018;12;2;19;17;0;-37.164267;76.792733;0.6;12;4.08;24;;;;;;;;3709856S;07647564E;;0;;;
HAR02;2018;12;2;19;34;0;-37.161017;76.794283;2.2;60;4.08;24.5;;;;;;;;3709661S;07647657E;;0;;;
HAR02;2018;12;2;19;49;0;-37.157633;76.795550;1.0;6;4.08;20;;;;;;;;3709458S;07647733E;;0;;;
HAR02;2018;12;2;20;4;0;-37.156417;76.797333;0.5;10;4.08;22;;;;;;;;3709385S;07647840E;;0;;;
HAR02;2018;12;2;20;19;0;-37.154950;76.799617;0.7;15;4.08;23;;;;;;;;3709297S;07647977E;;0;;;
HAR02;2018;12;2;20;35;0;-37.153133;76.800600;0.5;8;4.07;23.5;;;;;;;;3709188S;07648036E;;0;;;
HAR02;2018;12;2;20;50;0;-37.151733;76.801450;0.0;36;4.07;23;;;;;;;;3709104S;07648087E;;0;;;
HAR02;2018;12;2;21;6;0;-37.150467;76.802317;1.0;40;4.07;23;;;;;;;;3709028S;07648139E;;0;;;
HAR02;2018;12;2;21;21;0;-37.149650;76.803400;0.9;5;4.07;22.5;;;;;;;;3708979S;07648204E;;0;;;
HAR02;2018;12;2;21;36;0;-37.149217;76.804700;0.9;8;4.06;22;;;;;;;;3708953S;07648282E;;0;;;
HAR02;2018;12;2;21;52;0;-37.148650;76.805267;0.8;12;4.06;19.5;;;;;;;;3708919S;07648316E;;0;;;
HAR02;2018;12;2;22;7;0;-37.145800;76.804583;1.8;13;4.06;19;;;;;;;;3708748S;07648275E;;0;;;
HAR02;2018;12;2;22;22;0;-37.144050;76.804800;6.3;6;4.06;18;;;;;;;;3708643S;07648288E;;0;;;
HAR02;2018;12;2;22;38;0;-37.174850;76.880050;26.;13;4.06;16.5;;;;;;;;3710491S;07652803E;;0;;;
HAR02;2018;12;2;22;53;0;-37.215050;76.924750;24.;15;4.05;17.5;;;;;;;;3712903S;07655485E;;0;;;
HAR02;2018;12;2;23;8;0;-37.256300;76.986733;17.;12;4.05;18;;;;;;;;3715378S;07659204E;;0;;;
HAR02;2018;12;2;23;24;0;-37.266083;76.979833;0.5;19;4.05;17.5;;;;;;;;3715965S;07658790E;;0;;;
HAR02;2018;12;2;23;39;0;-37.303883;77.032033;21.;9;4.05;17.5;;;;;;;;3718233S;07701922E;;0;;;
HAR02;2018;12;2;23;54;0;-37.357600;77.099517;16.;9;4.05;17.5;;;;;;;;3721456S;07705971E;;0;;;
HAR02;2018;12;3;0;9;0;-37.412767;77.168450;26.;10;4.05;17.5;;;;;;;;3724766S;07710107E;;0;;;
HAR02;2018;12;3;0;25;0;-37.454450;77.213400;22.;11;4.05;18.5;;;;;;;;3727267S;07712804E;;0;;;
HAR02;2018;12;3;0;40;0;-37.506433;77.274567;31.;16;4.05;18;;;;;;;;3730386S;07716474E;;0;;;
HAR02;2018;12;3;0;55;0;-37.543800;77.291467;24.;15;4.05;19;;;;;;;;3732628S;07717488E;;0;;;
HAR02;2018;12;3;1;11;0;-37.585267;77.333233;13.;15;4.05;21.5;;;;;;;;3735116S;07719994E;;0;;;
HAR02;2018;12;3;1;26;0;-37.628883;77.391667;22.;18;4.06;20;;;;;;;;3737733S;07723500E;;0;;;
HAR02;2018;12;3;1;42;0;-37.673617;77.448433;39.;22;4.07;19;;;;;;;;3740417S;07726906E;;0;;;
HAR02;2018;12;3;1;57;0;-37.718483;77.486600;15.;14;4.08;20;;;;;;;;3743109S;07729196E;;0;;;
HAR02;2018;12;3;2;13;0;-37.748800;77.497217;0.4;35;4.08;22;;;;;;;;3744928S;07729833E;;0;;;
HAR02;2018;12;3;2;28;0;-37.782100;77.512933;12.;10;4.09;21;;;;;;;;3746926S;07730776E;;0;;;
HAR02;2018;12;3;2;43;0;-37.809317;77.501450;14.;17;4.11;20.5;;;;;;;;3748559S;07730087E;;0;;;
HAR02;2018;12;3;2;58;0;-37.846517;77.507700;22.;13;4.11;20;;;;;;;;3750791S;07730462E;;0;;;
HAR02;2018;12;3;3;4;19;;;;;;;;;;;;1;;;;4.1;0;;;
HAR02;2018;12;3;3;4;20;;;;;;;;;;;;1;;;;4.1;0;;;
HAR02;2018;12;3;3;8;52;;;;;;;;;;;;1;;;;4.11;0;;;
HAR02;2018;12;3;3;8;53;;;;;;;;;;;;1;;;;4.11;0;;;
HAR02;2018;12;3;3;13;48;;;;;;;;;;;;1;;;;4.11;0;;;
HAR02;2018;12;3;3;13;49;;;;;;;;;;;;1;;;;4.11;0;;;
HAR02;2018;12;3;3;13;56;;;;;;;;;;;;1;;;;4.11;0;;;
HAR02;2018;12;3;3;13;57;;;;;;;;;;;;1;;;;4.11;0;;;
HAR02;2018;12;3;3;13;58;;;;;;;;;;;;1;;;;4.11;0;;;
HAR02;2018;12;3;3;16;0;-37.854350;77.523900;0.9;169;4.11;18.5;;;;;;;;3751261S;07731434E;;0;;;
HAR02;2018;12;3;3;21;55;;;;;;;;;;;;1;;;;4.09;0;;;
HAR02;2018;12;3;3;21;56;;;;;;;;;;;;1;;;;4.09;0;;;
HAR02;2018;12;3;3;26;47;;;;;;;;;;;;1;;;;4.09;0;;;
HAR02;2018;12;3;3;26;48;;;;;;;;;;;;1;;;;4.09;0;;;
HAR02;2018;12;3;3;31;43;;;;;;;;;;;;1;;;;4.09;0;;;
HAR02;2018;12;3;3;31;44;;;;;;;;;;;;1;;;;4.09;0;;;
HAR02;2018;12;3;3;31;51;;;;;;;;;;;;1;;;;4.09;0;;;
HAR02;2018;12;3;3;31;52;;;;;;;;;;;;1;;;;4.09;0;;;
HAR02;2018;12;3;3;31;53;;;;;;;;;;;;1;;;;4.09;0;;;
HAR02;2018;12;3;3;32;0;-37.854350;77.523900;0.5;9;4.09;24;;;;;;;;3751261S;07731434E;;0;;;
HAR02;2018;12;3;3;37;7;;;;;;;;;;;;1;;;;4.09;0;;;
HAR02;2018;12;3;3;37;8;;;;;;;;;;;;1;;;;4.09;0;;;
HAR02;2018;12;3;3;42;2;;;;;;;;;;;;1;;;;4.09;0;;;
HAR02;2018;12;3;3;42;3;;;;;;;;;;;;1;;;;4.09;0;;;
HAR02;2018;12;3;3;46;58;;;;;;;;;;;;1;;;;4.09;0;;;
HAR02;2018;12;3;3;46;59;;;;;;;;;;;;1;;;;4.09;0;;;
HAR02;2018;12;3;3;47;0;-37.854783;77.523700;0.9;11;4.09;26;;;;;;;;3751287S;07731422E;;0;;;
HAR02;2018;12;3;3;47;6;;;;;;;;;;;;1;;;;4.09;0;;;
HAR02;2018;12;3;3;47;7;;;;;;;;;;;;1;;;;4.09;0;;;
HAR02;2018;12;3;3;47;8;;;;;;;;;;;;1;;;;4.09;0;;;
HAR02;2018;12;3;3;52;24;;;;;;;;;;;;1;;;;4.08;0;;;
HAR02;2018;12;3;3;52;25;;;;;;;;;;;;1;;;;4.09;0;;;
HAR02;2018;12;3;3;57;19;;;;;;;;;;;;1;;;;4.09;0;;;
HAR02;2018;12;3;3;57;20;;;;;;;;;;;;1;;;;4.09;0;;;
HAR02;2018;12;3;4;2;0;-37.854917;77.523683;0.4;6;4.08;27;;;;;;;;3751295S;07731421E;;0;;;
HAR02;2018;12;3;4;2;15;;;;;;;;;;;;1;;;;4.09;0;;;
HAR02;2018;12;3;4;2;16;;;;;;;;;;;;1;;;;4.09;0;;;
HAR02;2018;12;3;4;2;25;;;;;;;;;;;;1;;;;4.08;0;;;
HAR02;2018;12;3;4;7;38;;;;;;;;;;;;1;;;;4.09;0;;;
HAR02;2018;12;3;4;7;39;;;;;;;;;;;;1;;;;4.09;0;;;
HAR02;2018;12;3;4;17;0;-37.865600;77.501133;3.1;9;4.1;21.5;;;;;;;;3751936S;07730068E;;0;;;
HAR02;2018;12;3;4;32;56;;;;;;;;;;;;1;;;;4.1;0;;;
HAR02;2018;12;3;4;32;57;;;;;;;;;;;;1;;;;4.1;0;;;
HAR02;2018;12;3;4;33;0;-37.855800;77.521817;31.;19;4.1;19;;;;;;;;3751348S;07731309E;;0;;;
HAR02;2018;12;3;4;38;20;;;;;;;;;;;;1;;;;4.11;0;;;
HAR02;2018;12;3;4;38;21;;;;;;;;;;;;1;;;;4.11;0;;;
HAR02;2018;12;3;4;43;15;;;;;;;;;;;;1;;;;4.11;0;;;
HAR02;2018;12;3;4;43;16;;;;;;;;;;;;1;;;;4.11;0;;;
HAR02;2018;12;3;4;48;0;-37.855250;77.523200;0.3;10;4.11;19.5;;;;;;;;3751315S;07731392E;;0;;;
HAR02;2018;12;3;4;48;11;;;;;;;;;;;;1;;;;4.11;0;;;
HAR02;2018;12;3;4;48;12;;;;;;;;;;;;1;;;;4.11;0;;;
HAR02;2018;12;3;4;48;20;;;;;;;;;;;;1;;;;4.11;0;;;
HAR02;2018;12;3;4;48;21;;;;;;;;;;;;1;;;;4.1;0;;;
HAR02;2018;12;3;4;48;22;;;;;;;;;;;;1;;;;4.11;0;;;
HAR02;2018;12;3;4;53;38;;;;;;;;;;;;1;;;;4.1;0;;;
HAR02;2018;12;3;4;53;39;;;;;;;;;;;;1;;;;4.1;0;;;
HAR02;2018;12;3;4;58;32;;;;;;;;;;;;1;;;;4.1;0;;;
HAR02;2018;12;3;4;58;33;;;;;;;;;;;;1;;;;4.1;0;;;
HAR02;2018;12;3;5;3;28;;;;;;;;;;;;1;;;;4.1;0;;;
HAR02;2018;12;3;5;3;29;;;;;;;;;;;;1;;;;4.1;0;;;
HAR02;2018;12;3;5;3;36;;;;;;;;;;;;1;;;;4.1;0;;;
HAR02;2018;12;3;5;3;38;;;;;;;;;;;;1;;;;4.1;0;;;
HAR02;2018;12;3;5;4;0;-37.854183;77.524117;0.8;24;4.1;22.5;;;;;;;;3751251S;07731447E;;0;;;
HAR02;2018;12;3;5;9;7;;;;;;;;;;;;1;;;;4.1;0;;;
HAR02;2018;12;3;5;9;8;;;;;;;;;;;;1;;;;4.1;0;;;
HAR02;2018;12;3;5;14;1;;;;;;;;;;;;1;;;;4.1;0;;;
HAR02;2018;12;3;5;14;2;;;;;;;;;;;;1;;;;4.1;0;;;
HAR02;2018;12;3;5;18;57;;;;;;;;;;;;1;;;;4.1;0;;;
HAR02;2018;12;3;5;18;58;;;;;;;;;;;;1;;;;4.09;0;;;
HAR02;2018;12;3;5;19;0;-37.855000;77.523667;0.3;13;4.09;25;;;;;;;;3751300S;07731420E;;0;;;
HAR02;2018;12;3;5;19;5;;;;;;;;;;;;1;;;;4.09;0;;;
HAR02;2018;12;3;5;19;6;;;;;;;;;;;;1;;;;4.09;0;;;
HAR02;2018;12;3;5;19;7;;;;;;;;;;;;1;;;;4.09;0;;;
HAR02;2018;12;3;5;24;28;;;;;;;;;;;;1;;;;4.09;0;;;
HAR02;2018;12;3;5;24;29;;;;;;;;;;;;1;;;;4.09;0;;;
HAR02;2018;12;3;5;29;22;;;;;;;;;;;;1;;;;4.1;0;;;
HAR02;2018;12;3;5;29;23;;;;;;;;;;;;1;;;;4.09;0;;;
HAR02;2018;12;3;5;34;0;-37.855817;77.524500;0.1;17;4.09;26;;;;;;;;3751349S;07731470E;;0;;;
HAR02;2018;12;3;5;34;18;;;;;;;;;;;;1;;;;4.09;0;;;
HAR02;2018;12;3;5;34;19;;;;;;;;;;;;1;;;;4.09;0;;;
HAR02;2018;12;3;5;34;26;;;;;;;;;;;;1;;;;4.09;0;;;
HAR02;2018;12;3;5;34;27;;;;;;;;;;;;1;;;;4.09;0;;;
HAR02;2018;12;3;5;34;28;;;;;;;;;;;;1;;;;4.09;0;;;
HAR02;2018;12;3;5;39;49;;;;;;;;;;;;1;;;;4.09;0;;;
HAR02;2018;12;3;5;39;50;;;;;;;;;;;;1;;;;4.09;0;;;
HAR02;2018;12;3;5;44;44;;;;;;;;;;;;1;;;;4.09;0;;;
HAR02;2018;12;3;5;44;45;;;;;;;;;;;;1;;;;4.09;0;;;
HAR02;2018;12;3;5;49;40;;;;;;;;;;;;1;;;;4.09;0;;;
HAR02;2018;12;3;5;49;41;;;;;;;;;;;;1;;;;4.09;0;;;
HAR02;2018;12;3;5;49;48;;;;;;;;;;;;1;;;;4.09;0;;;
HAR02;2018;12;3;5;49;49;;;;;;;;;;;;1;;;;4.09;0;;;
HAR02;2018;12;3;5;49;50;;;;;;;;;;;;1;;;;4.09;0;;;
HAR02;2018;12;3;5;50;0;-37.854317;77.524483;0.5;19;4.09;30;;;;;;;;3751259S;07731469E;;0;;;
HAR02;2018;12;3;5;55;13;;;;;;;;;;;;1;;;;4.09;0;;;
HAR02;2018;12;3;5;55;14;;;;;;;;;;;;1;;;;4.08;0;;;
HAR02;2018;12;3;6;0;8;;;;;;;;;;;;1;;;;4.09;0;;;
HAR02;2018;12;3;6;0;9;;;;;;;;;;;;1;;;;4.09;0;;;
HAR02;2018;12;3;6;5;4;;;;;;;;;;;;1;;;;4.09;0;;;
HAR02;2018;12;3;6;5;5;;;;;;;;;;;;1;;;;4.08;0;;;
HAR02;2018;12;3;6;5;12;;;;;;;;;;;;1;;;;4.09;0;;;
HAR02;2018;12;3;6;5;13;;;;;;;;;;;;1;;;;4.08;0;;;
HAR02;2018;12;3;6;5;14;;;;;;;;;;;;1;;;;4.08;0;;;
HAR02;2018;12;3;6;6;0;-37.854250;77.523967;0.5;41;4.08;33.5;;;;;;;;3751255S;07731438E;;0;;;
HAR02;2018;12;3;6;11;0;;;;;;;;;;;;1;;;;4.08;0;;;
HAR02;2018;12;3;6;11;1;;;;;;;;;;;;1;;;;4.08;0;;;
HAR02;2018;12;3;6;15;55;;;;;;;;;;;;1;;;;4.09;0;;;
HAR02;2018;12;3;6;15;56;;;;;;;;;;;;1;;;;4.09;0;;;
HAR02;2018;12;3;6;20;51;;;;;;;;;;;;1;;;;4.09;0;;;
HAR02;2018;12;3;6;20;52;;;;;;;;;;;;1;;;;4.09;0;;;
HAR02;2018;12;3;6;20;59;;;;;;;;;;;;1;;;;4.09;0;;;
HAR02;2018;12;3;6;21;0;;;;;;;;;;;;1;;;;4.09;0;;;
HAR02;2018;12;3;6;21;0;-37.854000;77.523983;0.6;7;4.09;33.5;;;;;;;;3751240S;07731439E;;0;;;
HAR02;2018;12;3;6;21;1;;;;;;;;;;;;1;;;;4.09;0;;;
HAR02;2018;12;3;6;26;14;;;;;;;;;;;;1;;;;4.08;0;;;
HAR02;2018;12;3;6;31;8;;;;;;;;;;;;1;;;;4.08;0;;;
HAR02;2018;12;3;6;31;9;;;;;;;;;;;;1;;;;4.08;0;;;
HAR02;2018;12;3;6;36;0;-37.854350;77.523817;0.2;8;4.09;33;;;;;;;;3751261S;07731429E;;0;;;
HAR02;2018;12;3;6;36;4;;;;;;;;;;;;1;;;;4.09;0;;;
HAR02;2018;12;3;6;36;5;;;;;;;;;;;;1;;;;4.09;0;;;
HAR02;2018;12;3;6;36;12;;;;;;;;;;;;1;;;;4.09;0;;;
HAR02;2018;12;3;6;36;13;;;;;;;;;;;;1;;;;4.09;0;;;
HAR02;2018;12;3;6;36;14;;;;;;;;;;;;1;;;;4.09;0;;;
HAR02;2018;12;3;6;41;27;;;;;;;;;;;;1;;;;4.09;0;;;
HAR02;2018;12;3;6;41;28;;;;;;;;;;;;1;;;;4.09;0;;;
HAR02;2018;12;3;6;46;22;;;;;;;;;;;;1;;;;4.09;0;;;
HAR02;2018;12;3;6;46;23;;;;;;;;;;;;1;;;;4.09;0;;;
HAR02;2018;12;3;6;51;0;-37.854217;77.523900;0.6;12;4.09;33.5;;;;;;;;3751253S;07731434E;;0;;;
HAR02;2018;12;3;6;51;18;;;;;;;;;;;;1;;;;4.09;0;;;
HAR02;2018;12;3;6;51;19;;;;;;;;;;;;1;;;;4.09;0;;;
HAR02;2018;12;3;6;51;26;;;;;;;;;;;;1;;;;4.09;0;;;
HAR02;2018;12;3;6;51;27;;;;;;;;;;;;1;;;;4.09;0;;;
HAR02;2018;12;3;6;51;28;;;;;;;;;;;;1;;;;4.09;0;;;
HAR02;2018;12;3;6;56;45;;;;;;;;;;;;1;;;;4.09;0;;;
HAR02;2018;12;3;6;56;46;;;;;;;;;;;;1;;;;4.08;0;;;
HAR02;2018;12;3;7;1;40;;;;;;;;;;;;1;;;;4.09;0;;;
HAR02;2018;12;3;7;1;41;;;;;;;;;;;;1;;;;4.09;0;;;
HAR02;2018;12;3;7;6;36;;;;;;;;;;;;1;;;;4.09;0;;;
HAR02;2018;12;3;7;6;37;;;;;;;;;;;;1;;;;4.09;0;;;
HAR02;2018;12;3;7;6;44;;;;;;;;;;;;1;;;;4.09;0;;;
HAR02;2018;12;3;7;6;45;;;;;;;;;;;;1;;;;4.09;0;;;
HAR02;2018;12;3;7;6;46;;;;;;;;;;;;1;;;;4.09;0;;;
HAR02;2018;12;3;7;7;0;-37.854900;77.523667;1.4;8;4.09;34.5;;;;;;;;3751294S;07731420E;;0;;;
HAR02;2018;12;3;7;11;58;;;;;;;;;;;;1;;;;4.09;0;;;
HAR02;2018;12;3;7;11;59;;;;;;;;;;;;1;;;;4.09;0;;;
HAR02;2018;12;3;7;16;53;;;;;;;;;;;;1;;;;4.09;0;;;
HAR02;2018;12;3;7;16;54;;;;;;;;;;;;1;;;;4.09;0;;;
HAR02;2018;12;3;7;21;49;;;;;;;;;;;;1;;;;4.09;0;;;
HAR02;2018;12;3;7;21;50;;;;;;;;;;;;1;;;;4.09;0;;;
HAR02;2018;12;3;7;21;57;;;;;;;;;;;;1;;;;4.09;0;;;
HAR02;2018;12;3;7;21;58;;;;;;;;;;;;1;;;;4.09;0;;;
HAR02;2018;12;3;7;21;59;;;;;;;;;;;;1;;;;4.09;0;;;
HAR02;2018;12;3;7;22;0;-37.854933;77.523917;0.1;9;4.09;36.5;;;;;;;;3751296S;07731435E;;0;;;
HAR02;2018;12;3;7;27;14;;;;;;;;;;;;1;;;;4.08;0;;;
HAR02;2018;12;3;7;27;15;;;;;;;;;;;;1;;;;4.08;0;;;
HAR02;2018;12;3;7;32;8;;;;;;;;;;;;1;;;;4.08;0;;;
HAR02;2018;12;3;7;32;9;;;;;;;;;;;;1;;;;4.08;0;;;
HAR02;2018;12;3;7;37;0;-37.854950;77.524467;0.1;24;4.08;40;;;;;;;;3751297S;07731468E;;0;;;
HAR02;2018;12;3;7;37;4;;;;;;;;;;;;1;;;;4.08;0;;;
HAR02;2018;12;3;7;37;5;;;;;;;;;;;;1;;;;4.08;0;;;
HAR02;2018;12;3;7;37;12;;;;;;;;;;;;1;;;;4.08;0;;;
HAR02;2018;12;3;7;37;13;;;;;;;;;;;;1;;;;4.08;0;;;
HAR02;2018;12;3;7;37;14;;;;;;;;;;;;1;;;;4.08;0;;;
HAR02;2018;12;3;7;42;43;;;;;;;;;;;;1;;;;4.08;0;;;
HAR02;2018;12;3;7;42;44;;;;;;;;;;;;1;;;;4.08;0;;;
HAR02;2018;12;3;7;47;37;;;;;;;;;;;;1;;;;4.08;0;;;
HAR02;2018;12;3;7;47;38;;;;;;;;;;;;1;;;;4.08;0;;;
HAR02;2018;12;3;7;52;35;;;;;;;;;;;;1;;;;4.08;0;;;
HAR02;2018;12;3;7;52;41;;;;;;;;;;;;1;;;;4.08;0;;;
HAR02;2018;12;3;7;53;0;-37.854500;77.523933;0.8;33;4.08;41;;;;;;;;3751270S;07731436E;;0;;;
HAR02;2018;12;3;7;58;32;;;;;;;;;;;;1;;;;4.08;0;;;
HAR02;2018;12;3;7;58;34;;;;;;;;;;;;1;;;;4.08;0;;;
HAR02;2018;12;3;8;3;24;;;;;;;;;;;;1;;;;4.08;0;;;
HAR02;2018;12;3;8;3;25;;;;;;;;;;;;1;;;;4.08;0;;;
HAR02;2018;12;3;8;8;0;-37.854350;77.523667;1.7;8;4.08;39;;;;;;;;3751261S;07731420E;;0;;;
HAR02;2018;12;3;8;8;20;;;;;;;;;;;;1;;;;4.08;0;;;
HAR02;2018;12;3;8;8;21;;;;;;;;;;;;1;;;;4.08;0;;;
HAR02;2018;12;3;8;8;28;;;;;;;;;;;;1;;;;4.08;0;;;
HAR02;2018;12;3;8;8;29;;;;;;;;;;;;1;;;;4.08;0;;;
HAR02;2018;12;3;8;8;30;;;;;;;;;;;;1;;;;4.08;0;;;
HAR02;2018;12;3;8;23;0;-37.854433;77.524050;0.5;6;4.08;38;;;;;;;;3751266S;07731443E;;0;;;
HAR02;2018;12;3;8;23;36;;;;;;;;;;;;1;;;;4.08;0;;;
HAR02;2018;12;3;8;23;37;;;;;;;;;;;;1;;;;4.08;0;;;
HAR02;2018;12;3;8;23;42;;;;;;;;;;;;1;;;;4.08;0;;;
HAR02;2018;12;3;8;23;43;;;;;;;;;;;;1;;;;4.08;0;;;
HAR02;2018;12;3;8;23;44;;;;;;;;;;;;1;;;;4.08;0;;;
HAR02;2018;12;3;8;28;59;;;;;;;;;;;;1;;;;4.08;0;;;
HAR02;2018;12;3;8;29;0;;;;;;;;;;;;1;;;;4.08;0;;;
HAR02;2018;12;3;8;33;53;;;;;;;;;;;;1;;;;4.08;0;;;
HAR02;2018;12;3;8;33;54;;;;;;;;;;;;1;;;;4.08;0;;;
HAR02;2018;12;3;8;38;49;;;;;;;;;;;;1;;;;4.08;0;;;
HAR02;2018;12;3;8;38;50;;;;;;;;;;;;1;;;;4.08;0;;;
HAR02;2018;12;3;8;38;57;;;;;;;;;;;;1;;;;4.08;0;;;
HAR02;2018;12;3;8;38;58;;;;;;;;;;;;1;;;;4.08;0;;;
HAR02;2018;12;3;8;38;59;;;;;;;;;;;;1;;;;4.08;0;;;
HAR02;2018;12;3;8;39;0;-37.854450;77.524083;0.4;8;4.08;37;;;;;;;;3751267S;07731445E;;0;;;
HAR02;2018;12;3;8;44;11;;;;;;;;;;;;1;;;;4.08;0;;;
HAR02;2018;12;3;8;44;12;;;;;;;;;;;;1;;;;4.08;0;;;
HAR02;2018;12;3;8;49;5;;;;;;;;;;;;1;;;;4.08;0;;;
HAR02;2018;12;3;8;49;6;;;;;;;;;;;;1;;;;4.08;0;;;
HAR02;2018;12;3;8;54;0;-37.854617;77.524517;1.0;9;4.08;37.5;;;;;;;;3751277S;07731471E;;0;;;
HAR02;2018;12;3;8;54;1;;;;;;;;;;;;1;;;;4.08;0;;;
HAR02;2018;12;3;8;54;2;;;;;;;;;;;;1;;;;4.08;0;;;
HAR02;2018;12;3;8;54;9;;;;;;;;;;;;1;;;;4.08;0;;;
HAR02;2018;12;3;8;54;10;;;;;;;;;;;;1;;;;4.08;0;;;
HAR02;2018;12;3;8;54;11;;;;;;;;;;;;1;;;;4.08;0;;;
HAR02;2018;12;3;8;59;25;;;;;;;;;;;;1;;;;4.08;0;;;
HAR02;2018;12;3;8;59;26;;;;;;;;;;;;1;;;;4.08;0;;;
HAR02;2018;12;3;9;4;20;;;;;;;;;;;;1;;;;4.08;0;;;
HAR02;2018;12;3;9;4;21;;;;;;;;;;;;1;;;;4.08;0;;;
HAR02;2018;12;3;9;9;0;-37.854533;77.523833;0.2;12;4.08;34.5;;;;;;;;3751272S;07731430E;;0;;;
HAR02;2018;12;3;9;9;16;;;;;;;;;;;;1;;;;4.08;0;;;
HAR02;2018;12;3;9;9;17;;;;;;;;;;;;1;;;;4.08;0;;;
HAR02;2018;12;3;9;9;24;;;;;;;;;;;;1;;;;4.08;0;;;
HAR02;2018;12;3;9;9;25;;;;;;;;;;;;1;;;;4.08;0;;;
HAR02;2018;12;3;9;9;26;;;;;;;;;;;;1;;;;4.08;0;;;
HAR02;2018;12;3;9;14;43;;;;;;;;;;;;1;;;;4.08;0;;;
HAR02;2018;12;3;9;14;45;;;;;;;;;;;;1;;;;4.08;0;;;
HAR02;2018;12;3;9;19;38;;;;;;;;;;;;1;;;;4.08;0;;;
HAR02;2018;12;3;9;19;39;;;;;;;;;;;;1;;;;4.08;0;;;
HAR02;2018;12;3;9;24;34;;;;;;;;;;;;1;;;;4.08;0;;;
HAR02;2018;12;3;9;24;35;;;;;;;;;;;;1;;;;4.08;0;;;
HAR02;2018;12;3;9;24;42;;;;;;;;;;;;1;;;;4.08;0;;;
HAR02;2018;12;3;9;24;43;;;;;;;;;;;;1;;;;4.08;0;;;
HAR02;2018;12;3;9;24;44;;;;;;;;;;;;1;;;;4.08;0;;;
HAR02;2018;12;3;9;25;0;-37.854150;77.523667;0.5;9;4.08;36.5;;;;;;;;3751249S;07731420E;;0;;;
HAR02;2018;12;3;9;29;58;;;;;;;;;;;;1;;;;4.08;0;;;
HAR02;2018;12;3;9;29;59;;;;;;;;;;;;1;;;;4.08;0;;;
HAR02;2018;12;3;9;34;53;;;;;;;;;;;;1;;;;4.08;0;;;
HAR02;2018;12;3;9;34;54;;;;;;;;;;;;1;;;;4.08;0;;;
HAR02;2018;12;3;9;39;49;;;;;;;;;;;;1;;;;4.08;0;;;
HAR02;2018;12;3;9;39;50;;;;;;;;;;;;1;;;;4.08;0;;;
HAR02;2018;12;3;9;39;57;;;;;;;;;;;;1;;;;4.08;0;;;
HAR02;2018;12;3;9;39;58;;;;;;;;;;;;1;;;;4.08;0;;;
HAR02;2018;12;3;9;39;59;;;;;;;;;;;;1;;;;4.08;0;;;
HAR02;2018;12;3;9;40;0;-37.855150;77.523933;0.6;8;4.08;36.5;;;;;;;;3751309S;07731436E;;0;;;
HAR02;2018;12;3;9;45;12;;;;;;;;;;;;1;;;;4.08;0;;;
HAR02;2018;12;3;9;45;13;;;;;;;;;;;;1;;;;4.08;0;;;
HAR02;2018;12;3;9;50;7;;;;;;;;;;;;1;;;;4.08;0;;;
HAR02;2018;12;3;9;50;8;;;;;;;;;;;;1;;;;4.08;0;;;
HAR02;2018;12;3;9;55;0;-37.855700;77.523683;0.3;8;4.08;35.5;;;;;;;;3751342S;07731421E;;0;;;
HAR02;2018;12;3;9;55;4;;;;;;;;;;;;1;;;;4.08;0;;;
HAR02;2018;12;3;9;55;11;;;;;;;;;;;;1;;;;4.08;0;;;
HAR02;2018;12;3;9;55;12;;;;;;;;;;;;1;;;;4.08;0;;;
HAR02;2018;12;3;9;55;13;;;;;;;;;;;;1;;;;4.08;0;;;
HAR02;2018;12;3;10;0;27;;;;;;;;;;;;1;;;;4.08;0;;;
HAR02;2018;12;3;10;0;28;;;;;;;;;;;;1;;;;4.08;0;;;
HAR02;2018;12;3;10;5;21;;;;;;;;;;;;1;;;;4.08;0;;;
HAR02;2018;12;3;10;5;22;;;;;;;;;;;;1;;;;4.08;0;;;
HAR02;2018;12;3;10;10;0;-37.854950;77.524000;0.2;8;4.08;38;;;;;;;;3751297S;07731440E;;0;;;
HAR02;2018;12;3;10;10;17;;;;;;;;;;;;1;;;;4.08;0;;;
HAR02;2018;12;3;10;10;18;;;;;;;;;;;;1;;;;4.08;0;;;
HAR02;2018;12;3;10;10;25;;;;;;;;;;;;1;;;;4.08;0;;;
HAR02;2018;12;3;10;10;26;;;;;;;;;;;;1;;;;4.08;0;;;
HAR02;2018;12;3;10;10;27;;;;;;;;;;;;1;;;;4.08;0;;;
HAR02;2018;12;3;10;15;40;;;;;;;;;;;;1;;;;4.08;0;;;
HAR02;2018;12;3;10;15;41;;;;;;;;;;;;1;;;;4.08;0;;;
HAR02;2018;12;3;10;20;35;;;;;;;;;;;;1;;;;4.08;0;;;
HAR02;2018;12;3;10;20;36;;;;;;;;;;;;1;;;;4.08;0;;;
HAR02;2018;12;3;10;25;0;-37.853967;77.523450;1.3;9;4.08;40;;;;;;;;3751238S;07731407E;;0;;;
HAR02;2018;12;3;10;25;31;;;;;;;;;;;;1;;;;4.08;0;;;
HAR02;2018;12;3;10;25;32;;;;;;;;;;;;1;;;;4.08;0;;;
HAR02;2018;12;3;10;25;39;;;;;;;;;;;;1;;;;4.08;0;;;
HAR02;2018;12;3;10;25;40;;;;;;;;;;;;1;;;;4.08;0;;;
HAR02;2018;12;3;10;25;41;;;;;;;;;;;;1;;;;4.08;0;;;
HAR02;2018;12;3;10;30;56;;;;;;;;;;;;1;;;;4.08;0;;;
HAR02;2018;12;3;10;30;57;;;;;;;;;;;;1;;;;4.08;0;;;
HAR02;2018;12;3;10;35;59;;;;;;;;;;;;1;;;;4.08;0;;;
HAR02;2018;12;3;10;40;46;;;;;;;;;;;;1;;;;4.08;0;;;
HAR02;2018;12;3;10;40;47;;;;;;;;;;;;1;;;;4.08;0;;;
HAR02;2018;12;3;10;40;54;;;;;;;;;;;;1;;;;4.08;0;;;
HAR02;2018;12;3;10;40;55;;;;;;;;;;;;1;;;;4.08;0;;;
HAR02;2018;12;3;10;40;56;;;;;;;;;;;;1;;;;4.08;0;;;
HAR02;2018;12;3;10;41;0;-37.854600;77.523467;0.7;10;4.08;39;;;;;;;;3751276S;07731408E;;0;;;
HAR02;2018;12;3;10;46;12;;;;;;;;;;;;1;;;;4.08;0;;;
HAR02;2018;12;3;10;46;13;;;;;;;;;;;;1;;;;4.08;0;;;
HAR02;2018;12;3;10;51;6;;;;;;;;;;;;1;;;;4.08;0;;;
HAR02;2018;12;3;10;51;7;;;;;;;;;;;;1;;;;4.08;0;;;
HAR02;2018;12;3;10;56;0;-37.852450;77.524817;0.2;21;4.08;40.5;;;;;;;;3751147S;07731489E;;0;;;
HAR02;2018;12;3;10;56;2;;;;;;;;;;;;1;;;;4.08;0;;;
HAR02;2018;12;3;10;56;3;;;;;;;;;;;;1;;;;4.08;0;;;
HAR02;2018;12;3;10;56;10;;;;;;;;;;;;1;;;;4.08;0;;;
HAR02;2018;12;3;10;56;11;;;;;;;;;;;;1;;;;4.08;0;;;
HAR02;2018;12;3;10;56;12;;;;;;;;;;;;1;;;;4.08;0;;;
HAR02;2018;12;3;11;1;39;;;;;;;;;;;;1;;;;4.08;0;;;
HAR02;2018;12;3;11;1;40;;;;;;;;;;;;1;;;;4.08;0;;;
HAR02;2018;12;3;11;6;33;;;;;;;;;;;;1;;;;4.08;0;;;
HAR02;2018;12;3;11;6;34;;;;;;;;;;;;1;;;;4.08;0;;;
HAR02;2018;12;3;11;11;29;;;;;;;;;;;;1;;;;4.08;0;;;
HAR02;2018;12;3;11;11;30;;;;;;;;;;;;1;;;;4.08;0;;;
HAR02;2018;12;3;11;11;37;;;;;;;;;;;;1;;;;4.08;0;;;
HAR02;2018;12;3;11;11;38;;;;;;;;;;;;1;;;;4.08;0;;;
HAR02;2018;12;3;11;11;39;;;;;;;;;;;;1;;;;4.08;0;;;
HAR02;2018;12;3;11;12;0;-37.855817;77.524800;0.3;18;4.08;37.5;;;;;;;;3751349S;07731488E;;0;;;
HAR02;2018;12;3;11;17;4;;;;;;;;;;;;1;;;;4.08;0;;;
HAR02;2018;12;3;11;17;5;;;;;;;;;;;;1;;;;4.08;0;;;
HAR02;2018;12;3;11;21;56;;;;;;;;;;;;1;;;;4.08;0;;;
HAR02;2018;12;3;11;21;57;;;;;;;;;;;;1;;;;4.08;0;;;
HAR02;2018;12;3;11;26;52;;;;;;;;;;;;1;;;;4.08;0;;;
HAR02;2018;12;3;11;26;53;;;;;;;;;;;;1;;;;4.08;0;;;
HAR02;2018;12;3;11;27;0;;;;;;;;;;;;1;;;;4.08;0;;;
HAR02;2018;12;3;11;27;0;-37.853950;77.524300;0.3;13;4.08;38.5;;;;;;;;3751237S;07731458E;;0;;;
HAR02;2018;12;3;11;27;1;;;;;;;;;;;;1;;;;4.08;0;;;
HAR02;2018;12;3;11;27;2;;;;;;;;;;;;1;;;;4.08;0;;;
HAR02;2018;12;3;11;32;20;;;;;;;;;;;;1;;;;4.08;0;;;
HAR02;2018;12;3;11;32;21;;;;;;;;;;;;1;;;;4.08;0;;;
HAR02;2018;12;3;11;37;15;;;;;;;;;;;;1;;;;4.08;0;;;
HAR02;2018;12;3;11;37;16;;;;;;;;;;;;1;;;;4.08;0;;;
HAR02;2018;12;3;11;42;0;-37.854250;77.524017;0.3;15;4.08;36;;;;;;;;3751255S;07731441E;;0;;;
HAR02;2018;12;3;11;42;11;;;;;;;;;;;;1;;;;4.08;0;;;
HAR02;2018;12;3;11;42;12;;;;;;;;;;;;1;;;;4.08;0;;;
HAR02;2018;12;3;11;42;19;;;;;;;;;;;;1;;;;4.08;0;;;
HAR02;2018;12;3;11;42;20;;;;;;;;;;;;1;;;;4.08;0;;;
HAR02;2018;12;3;11;42;21;;;;;;;;;;;;1;;;;4.08;0;;;
HAR02;2018;12;3;11;47;43;;;;;;;;;;;;1;;;;4.08;0;;;
HAR02;2018;12;3;11;47;44;;;;;;;;;;;;1;;;;4.08;0;;;
HAR02;2018;12;3;11;52;38;;;;;;;;;;;;1;;;;4.08;0;;;
HAR02;2018;12;3;11;52;39;;;;;;;;;;;;1;;;;4.08;0;;;
HAR02;2018;12;3;11;57;34;;;;;;;;;;;;1;;;;4.08;0;;;
HAR02;2018;12;3;11;57;35;;;;;;;;;;;;1;;;;4.08;0;;;
HAR02;2018;12;3;11;57;42;;;;;;;;;;;;1;;;;4.08;0;;;
HAR02;2018;12;3;11;57;43;;;;;;;;;;;;1;;;;4.08;0;;;
HAR02;2018;12;3;11;57;44;;;;;;;;;;;;1;;;;4.08;0;;;
HAR02;2018;12;3;11;58;0;-37.854367;77.523883;0.2;30;4.08;33;;;;;;;;3751262S;07731433E;;0;;;
HAR02;2018;12;3;12;3;20;;;;;;;;;;;;1;;;;4.08;0;;;
HAR02;2018;12;3;12;3;21;;;;;;;;;;;;1;;;;4.08;0;;;
HAR02;2018;12;3;12;8;14;;;;;;;;;;;;1;;;;4.08;0;;;
HAR02;2018;12;3;12;8;15;;;;;;;;;;;;1;;;;4.08;0;;;
HAR02;2018;12;3;12;13;0;-37.854400;77.523833;0.0;31;4.08;31.5;;;;;;;;3751264S;07731430E;;0;;;
HAR02;2018;12;3;12;13;10;;;;;;;;;;;;1;;;;4.08;0;;;
HAR02;2018;12;3;12;13;11;;;;;;;;;;;;1;;;;4.08;0;;;
HAR02;2018;12;3;12;13;18;;;;;;;;;;;;1;;;;4.08;0;;;
HAR02;2018;12;3;12;13;19;;;;;;;;;;;;1;;;;4.08;0;;;
HAR02;2018;12;3;12;13;20;;;;;;;;;;;;1;;;;4.08;0;;;
HAR02;2018;12;3;12;18;56;;;;;;;;;;;;1;;;;4.08;0;;;
HAR02;2018;12;3;12;18;57;;;;;;;;;;;;1;;;;4.08;0;;;
HAR02;2018;12;3;12;23;50;;;;;;;;;;;;1;;;;4.08;0;;;
HAR02;2018;12;3;12;23;51;;;;;;;;;;;;1;;;;4.08;0;;;
HAR02;2018;12;3;12;28;46;;;;;;;;;;;;1;;;;4.08;0;;;
HAR02;2018;12;3;12;28;47;;;;;;;;;;;;1;;;;4.08;0;;;
HAR02;2018;12;3;12;28;54;;;;;;;;;;;;1;;;;4.08;0;;;
HAR02;2018;12;3;12;28;55;;;;;;;;;;;;1;;;;4.08;0;;;
HAR02;2018;12;3;12;28;56;;;;;;;;;;;;1;;;;4.08;0;;;
HAR02;2018;12;3;12;29;0;-37.854333;77.523850;0.5;30;4.08;30.5;;;;;;;;3751260S;07731431E;;0;;;
HAR02;2018;12;3;12;34;31;;;;;;;;;;;;1;;;;4.08;0;;;
HAR02;2018;12;3;12;34;32;;;;;;;;;;;;1;;;;4.08;0;;;
HAR02;2018;12;3;12;39;26;;;;;;;;;;;;1;;;;4.08;0;;;
HAR02;2018;12;3;12;39;27;;;;;;;;;;;;1;;;;4.08;0;;;
HAR02;2018;12;3;12;44;0;-37.854250;77.523933;0.6;7;4.08;31;;;;;;;;3751255S;07731436E;;0;;;
HAR02;2018;12;3;12;44;22;;;;;;;;;;;;1;;;;4.08;0;;;
HAR02;2018;12;3;12;44;23;;;;;;;;;;;;1;;;;4.08;0;;;
HAR02;2018;12;3;12;44;30;;;;;;;;;;;;1;;;;4.08;0;;;
HAR02;2018;12;3;12;44;31;;;;;;;;;;;;1;;;;4.08;0;;;
HAR02;2018;12;3;12;44;32;;;;;;;;;;;;1;;;;4.08;0;;;
HAR02;2018;12;3;12;49;45;;;;;;;;;;;;1;;;;4.08;0;;;
HAR02;2018;12;3;12;49;46;;;;;;;;;;;;1;;;;4.08;0;;;
HAR02;2018;12;3;12;54;39;;;;;;;;;;;;1;;;;4.08;0;;;
HAR02;2018;12;3;12;54;40;;;;;;;;;;;;1;;;;4.08;0;;;
HAR02;2018;12;3;12;59;0;-37.854033;77.523800;0.2;6;4.08;28.5;;;;;;;;3751242S;07731428E;;0;;;
HAR02;2018;12;3;12;59;35;;;;;;;;;;;;1;;;;4.08;0;;;
HAR02;2018;12;3;12;59;36;;;;;;;;;;;;1;;;;4.08;0;;;
HAR02;2018;12;3;12;59;43;;;;;;;;;;;;1;;;;4.08;0;;;
HAR02;2018;12;3;12;59;44;;;;;;;;;;;;1;;;;4.08;0;;;
HAR02;2018;12;3;12;59;45;;;;;;;;;;;;1;;;;4.08;0;;;
HAR02;2018;12;3;13;4;55;;;;;;;;;;;;1;;;;4.08;0;;;
HAR02;2018;12;3;13;4;56;;;;;;;;;;;;1;;;;4.08;0;;;
HAR02;2018;12;3;13;9;50;;;;;;;;;;;;1;;;;4.08;0;;;
HAR02;2018;12;3;13;9;51;;;;;;;;;;;;1;;;;4.08;0;;;
HAR02;2018;12;3;13;14;46;;;;;;;;;;;;1;;;;4.08;0;;;
HAR02;2018;12;3;13;14;47;;;;;;;;;;;;1;;;;4.08;0;;;
HAR02;2018;12;3;13;14;54;;;;;;;;;;;;1;;;;4.08;0;;;
HAR02;2018;12;3;13;14;55;;;;;;;;;;;;1;;;;4.08;0;;;
HAR02;2018;12;3;13;14;56;;;;;;;;;;;;1;;;;4.08;0;;;
HAR02;2018;12;3;13;15;0;-37.853933;77.524033;0.5;8;4.08;27.5;;;;;;;;3751236S;07731442E;;0;;;
HAR02;2018;12;3;13;20;10;;;;;;;;;;;;1;;;;4.08;0;;;
HAR02;2018;12;3;13;20;11;;;;;;;;;;;;1;;;;4.08;0;;;
HAR02;2018;12;3;13;25;4;;;;;;;;;;;;1;;;;4.08;0;;;
HAR02;2018;12;3;13;25;5;;;;;;;;;;;;1;;;;4.08;0;;;
HAR02;2018;12;3;13;30;0;;;;;;;;;;;;1;;;;4.08;0;;;
HAR02;2018;12;3;13;30;0;-37.854117;77.524033;0.9;7;4.08;27.5;;;;;;;;3751247S;07731442E;;0;;;
HAR02;2018;12;3;13;30;1;;;;;;;;;;;;1;;;;4.08;0;;;
HAR02;2018;12;3;13;30;8;;;;;;;;;;;;1;;;;4.08;0;;;
HAR02;2018;12;3;13;30;9;;;;;;;;;;;;1;;;;4.08;0;;;
HAR02;2018;12;3;13;30;10;;;;;;;;;;;;1;;;;4.08;0;;;
HAR02;2018;12;3;13;35;24;;;;;;;;;;;;1;;;;4.08;0;;;
HAR02;2018;12;3;13;35;25;;;;;;;;;;;;1;;;;4.08;0;;;
HAR02;2018;12;3;13;40;18;;;;;;;;;;;;1;;;;4.08;0;;;
HAR02;2018;12;3;13;40;19;;;;;;;;;;;;1;;;;4.08;0;;;
HAR02;2018;12;3;13;45;0;-37.854350;77.523900;0.7;7;4.08;26.5;;;;;;;;3751261S;07731434E;;0;;;
HAR02;2018;12;3;13;45;14;;;;;;;;;;;;1;;;;4.08;0;;;
HAR02;2018;12;3;13;45;15;;;;;;;;;;;;1;;;;4.08;0;;;
HAR02;2018;12;3;13;45;22;;;;;;;;;;;;1;;;;4.08;0;;;
HAR02;2018;12;3;13;45;23;;;;;;;;;;;;1;;;;4.08;0;;;
HAR02;2018;12;3;13;45;24;;;;;;;;;;;;1;;;;4.08;0;;;
HAR02;2018;12;3;13;50;37;;;;;;;;;;;;1;;;;4.08;0;;;
HAR02;2018;12;3;13;50;38;;;;;;;;;;;;1;;;;4.08;0;;;
HAR02;2018;12;3;13;55;31;;;;;;;;;;;;1;;;;4.08;0;;;
HAR02;2018;12;3;13;55;32;;;;;;;;;;;;1;;;;4.08;0;;;
HAR02;2018;12;3;14;0;0;-37.854367;77.523867;0.3;8;4.07;25.5;;;;;;;;3751262S;07731432E;;0;;;
HAR02;2018;12;3;14;0;27;;;;;;;;;;;;1;;;;4.08;0;;;
HAR02;2018;12;3;14;0;28;;;;;;;;;;;;1;;;;4.08;0;;;
HAR02;2018;12;3;14;0;35;;;;;;;;;;;;1;;;;4.08;0;;;
HAR02;2018;12;3;14;0;36;;;;;;;;;;;;1;;;;4.08;0;;;
HAR02;2018;12;3;14;0;37;;;;;;;;;;;;1;;;;4.07;0;;;
HAR02;2018;12;3;14;5;51;;;;;;;;;;;;1;;;;4.08;0;;;
HAR02;2018;12;3;14;5;52;;;;;;;;;;;;1;;;;4.07;0;;;
HAR02;2018;12;3;14;10;45;;;;;;;;;;;;1;;;;4.08;0;;;
HAR02;2018;12;3;14;10;46;;;;;;;;;;;;1;;;;4.07;0;;;
HAR02;2018;12;3;14;15;41;;;;;;;;;;;;1;;;;4.08;0;;;
HAR02;2018;12;3;14;15;42;;;;;;;;;;;;1;;;;4.08;0;;;
HAR02;2018;12;3;14;15;49;;;;;;;;;;;;1;;;;4.08;0;;;
HAR02;2018;12;3;14;15;50;;;;;;;;;;;;1;;;;4.07;0;;;
HAR02;2018;12;3;14;15;51;;;;;;;;;;;;1;;;;4.07;0;;;
HAR02;2018;12;3;14;16;0;-37.854267;77.523917;15.;7;4.07;24.5;;;;;;;;3751256S;07731435E;;0;;;
HAR02;2018;12;3;14;21;4;;;;;;;;;;;;1;;;;4.07;0;;;
HAR02;2018;12;3;14;21;5;;;;;;;;;;;;1;;;;4.07;0;;;
HAR02;2018;12;3;14;25;58;;;;;;;;;;;;1;;;;4.08;0;;;
HAR02;2018;12;3;14;25;59;;;;;;;;;;;;1;;;;4.07;0;;;
HAR02;2018;12;3;14;30;54;;;;;;;;;;;;1;;;;4.08;0;;;
HAR02;2018;12;3;14;30;55;;;;;;;;;;;;1;;;;4.07;0;;;
HAR02;2018;12;3;14;31;0;-37.854883;77.524000;0.3;16;4.07;24.5;;;;;;;;3751293S;07731440E;;0;;;
HAR02;2018;12;3;14;31;2;;;;;;;;;;;;1;;;;4.07;0;;;
HAR02;2018;12;3;14;31;3;;;;;;;;;;;;1;;;;4.07;0;;;
HAR02;2018;12;3;14;31;4;;;;;;;;;;;;1;;;;4.07;0;;;
HAR02;2018;12;3;14;36;25;;;;;;;;;;;;1;;;;4.07;0;;;
HAR02;2018;12;3;14;36;26;;;;;;;;;;;;1;;;;4.07;0;;;
HAR02;2018;12;3;14;41;20;;;;;;;;;;;;1;;;;4.07;0;;;
HAR02;2018;12;3;14;41;21;;;;;;;;;;;;1;;;;4.07;0;;;
HAR02;2018;12;3;14;46;0;-37.854833;77.523983;0.2;18;4.07;24;;;;;;;;3751290S;07731439E;;0;;;
HAR02;2018;12;3;14;46;16;;;;;;;;;;;;1;;;;4.07;0;;;
HAR02;2018;12;3;14;46;17;;;;;;;;;;;;1;;;;4.07;0;;;
HAR02;2018;12;3;14;46;24;;;;;;;;;;;;1;;;;4.07;0;;;
HAR02;2018;12;3;14;46;25;;;;;;;;;;;;1;;;;4.07;0;;;
HAR02;2018;12;3;14;46;26;;;;;;;;;;;;1;;;;4.07;0;;;
HAR02;2018;12;3;14;51;48;;;;;;;;;;;;1;;;;4.07;0;;;
HAR02;2018;12;3;14;51;49;;;;;;;;;;;;1;;;;4.07;0;;;
HAR02;2018;12;3;14;56;43;;;;;;;;;;;;1;;;;4.07;0;;;
HAR02;2018;12;3;14;56;44;;;;;;;;;;;;1;;;;4.07;0;;;
HAR02;2018;12;3;15;1;39;;;;;;;;;;;;1;;;;4.07;0;;;
HAR02;2018;12;3;15;1;40;;;;;;;;;;;;1;;;;4.07;0;;;
HAR02;2018;12;3;15;1;47;;;;;;;;;;;;1;;;;4.07;0;;;
HAR02;2018;12;3;15;1;48;;;;;;;;;;;;1;;;;4.07;0;;;
HAR02;2018;12;3;15;1;49;;;;;;;;;;;;1;;;;4.07;0;;;
HAR02;2018;12;3;15;2;0;-37.854767;77.524383;0.6;10;4.07;23.5;;;;;;;;3751286S;07731463E;;0;;;
HAR02;2018;12;3;15;7;5;;;;;;;;;;;;1;;;;4.07;0;;;
HAR02;2018;12;3;15;7;6;;;;;;;;;;;;1;;;;4.07;0;;;
HAR02;2018;12;3;15;12;0;;;;;;;;;;;;1;;;;4.07;0;;;
HAR02;2018;12;3;15;12;1;;;;;;;;;;;;1;;;;4.07;0;;;
HAR02;2018;12;3;15;16;56;;;;;;;;;;;;1;;;;4.07;0;;;
HAR02;2018;12;3;15;16;57;;;;;;;;;;;;1;;;;4.07;0;;;
HAR02;2018;12;3;15;17;0;-37.854950;77.523767;0.4;22;4.06;25;;;;;;;;3751297S;07731426E;;0;;;
HAR02;2018;12;3;15;17;4;;;;;;;;;;;;1;;;;4.07;0;;;
HAR02;2018;12;3;15;17;5;;;;;;;;;;;;1;;;;4.07;0;;;
HAR02;2018;12;3;15;17;6;;;;;;;;;;;;1;;;;4.06;0;;;
HAR02;2018;12;3;15;22;32;;;;;;;;;;;;1;;;;4.06;0;;;
HAR02;2018;12;3;15;22;33;;;;;;;;;;;;1;;;;4.06;0;;;
HAR02;2018;12;3;15;27;27;;;;;;;;;;;;1;;;;4.06;0;;;
HAR02;2018;12;3;15;27;28;;;;;;;;;;;;1;;;;4.06;0;;;
HAR02;2018;12;3;15;32;0;-37.854517;77.523900;0.4;17;4.06;26.5;;;;;;;;3751271S;07731434E;;0;;;
HAR02;2018;12;3;15;32;23;;;;;;;;;;;;1;;;;4.06;0;;;
HAR02;2018;12;3;15;32;24;;;;;;;;;;;;1;;;;4.06;0;;;
HAR02;2018;12;3;15;32;32;;;;;;;;;;;;1;;;;4.06;0;;;
HAR02;2018;12;3;15;32;33;;;;;;;;;;;;1;;;;4.06;0;;;
HAR02;2018;12;3;15;32;34;;;;;;;;;;;;1;;;;4.06;0;;;
HAR02;2018;12;3;15;37;57;;;;;;;;;;;;1;;;;4.06;0;;;
HAR02;2018;12;3;15;37;58;;;;;;;;;;;;1;;;;4.06;0;;;
HAR02;2018;12;3;15;42;52;;;;;;;;;;;;1;;;;4.06;0;;;
HAR02;2018;12;3;15;42;53;;;;;;;;;;;;1;;;;4.06;0;;;
HAR02;2018;12;3;15;47;48;;;;;;;;;;;;1;;;;4.06;0;;;
HAR02;2018;12;3;15;47;49;;;;;;;;;;;;1;;;;4.06;0;;;
HAR02;2018;12;3;15;47;56;;;;;;;;;;;;1;;;;4.06;0;;;
HAR02;2018;12;3;15;47;57;;;;;;;;;;;;1;;;;4.06;0;;;
HAR02;2018;12;3;15;47;58;;;;;;;;;;;;1;;;;4.06;0;;;
HAR02;2018;12;3;15;48;0;-37.855050;77.523533;0.5;11;4.06;27;;;;;;;;3751303S;07731412E;;0;;;
HAR02;2018;12;3;15;53;15;;;;;;;;;;;;1;;;;4.06;0;;;
HAR02;2018;12;3;15;53;16;;;;;;;;;;;;1;;;;4.05;0;;;
HAR02;2018;12;3;15;58;10;;;;;;;;;;;;1;;;;4.06;0;;;
HAR02;2018;12;3;15;58;11;;;;;;;;;;;;1;;;;4.06;0;;;
HAR02;2018;12;3;16;3;0;-37.854400;77.523750;0.3;11;4.06;27;;;;;;;;3751264S;07731425E;;0;;;
HAR02;2018;12;3;16;3;6;;;;;;;;;;;;1;;;;4.06;0;;;
HAR02;2018;12;3;16;3;7;;;;;;;;;;;;1;;;;4.06;0;;;
HAR02;2018;12;3;16;3;14;;;;;;;;;;;;1;;;;4.06;0;;;
HAR02;2018;12;3;16;3;15;;;;;;;;;;;;1;;;;4.05;0;;;
HAR02;2018;12;3;16;3;16;;;;;;;;;;;;1;;;;4.06;0;;;
HAR02;2018;12;3;16;8;30;;;;;;;;;;;;1;;;;4.05;0;;;
HAR02;2018;12;3;16;8;31;;;;;;;;;;;;1;;;;4.05;0;;;
HAR02;2018;12;3;16;13;25;;;;;;;;;;;;1;;;;4.06;0;;;
HAR02;2018;12;3;16;13;26;;;;;;;;;;;;1;;;;4.05;0;;;
HAR02;2018;12;3;16;18;0;-37.854433;77.523717;0.2;8;4.05;27;;;;;;;;3751266S;07731423E;;0;;;
HAR02;2018;12;3;16;18;21;;;;;;;;;;;;1;;;;4.05;0;;;
HAR02;2018;12;3;16;18;22;;;;;;;;;;;;1;;;;4.05;0;;;
HAR02;2018;12;3;16;18;29;;;;;;;;;;;;1;;;;4.05;0;;;
HAR02;2018;12;3;16;18;30;;;;;;;;;;;;1;;;;4.05;0;;;
HAR02;2018;12;3;16;18;31;;;;;;;;;;;;1;;;;4.05;0;;;
HAR02;2018;12;3;16;23;45;;;;;;;;;;;;1;;;;4.05;0;;;
HAR02;2018;12;3;16;23;46;;;;;;;;;;;;1;;;;4.05;0;;;
HAR02;2018;12;3;16;28;39;;;;;;;;;;;;1;;;;4.05;0;;;
HAR02;2018;12;3;16;28;40;;;;;;;;;;;;1;;;;4.05;0;;;
HAR02;2018;12;3;16;33;35;;;;;;;;;;;;1;;;;4.05;0;;;
HAR02;2018;12;3;16;33;36;;;;;;;;;;;;1;;;;4.05;0;;;
HAR02;2018;12;3;16;33;43;;;;;;;;;;;;1;;;;4.05;0;;;
HAR02;2018;12;3;16;33;44;;;;;;;;;;;;1;;;;4.05;0;;;
HAR02;2018;12;3;16;33;45;;;;;;;;;;;;1;;;;4.05;0;;;
HAR02;2018;12;3;16;34;0;-37.854183;77.523833;0.3;15;4.05;26;;;;;;;;3751251S;07731430E;;0;;;
HAR02;2018;12;3;16;39;8;;;;;;;;;;;;1;;;;4.05;0;;;
HAR02;2018;12;3;16;39;9;;;;;;;;;;;;1;;;;4.05;0;;;
HAR02;2018;12;3;16;44;2;;;;;;;;;;;;1;;;;4.05;0;;;
HAR02;2018;12;3;16;44;3;;;;;;;;;;;;1;;;;4.05;0;;;
HAR02;2018;12;3;16;48;58;;;;;;;;;;;;1;;;;4.05;0;;;
HAR02;2018;12;3;16;48;59;;;;;;;;;;;;1;;;;4.05;0;;;
HAR02;2018;12;3;16;49;0;-37.854100;77.523817;0.8;10;4.05;22.5;;;;;;;;3751246S;07731429E;;0;;;
HAR02;2018;12;3;16;49;6;;;;;;;;;;;;1;;;;4.05;0;;;
HAR02;2018;12;3;16;49;7;;;;;;;;;;;;1;;;;4.05;0;;;
HAR02;2018;12;3;16;49;8;;;;;;;;;;;;1;;;;4.05;0;;;
HAR02;2018;12;3;16;54;23;;;;;;;;;;;;1;;;;4.05;0;;;
HAR02;2018;12;3;16;54;24;;;;;;;;;;;;1;;;;4.05;0;;;
HAR02;2018;12;3;16;59;17;;;;;;;;;;;;1;;;;4.05;0;;;
HAR02;2018;12;3;16;59;18;;;;;;;;;;;;1;;;;4.05;0;;;
HAR02;2018;12;3;17;4;0;-37.854250;77.523867;0.5;23;4.05;23.5;;;;;;;;3751255S;07731432E;;0;;;
HAR02;2018;12;3;17;4;13;;;;;;;;;;;;1;;;;4.05;0;;;
HAR02;2018;12;3;17;4;14;;;;;;;;;;;;1;;;;4.05;0;;;
HAR02;2018;12;3;17;4;21;;;;;;;;;;;;1;;;;4.05;0;;;
HAR02;2018;12;3;17;4;22;;;;;;;;;;;;1;;;;4.05;0;;;
HAR02;2018;12;3;17;4;23;;;;;;;;;;;;1;;;;4.05;0;;;
HAR02;2018;12;3;17;9;53;;;;;;;;;;;;1;;;;4.05;0;;;
HAR02;2018;12;3;17;9;54;;;;;;;;;;;;1;;;;4.05;0;;;
HAR02;2018;12;3;17;14;47;;;;;;;;;;;;1;;;;4.05;0;;;
HAR02;2018;12;3;17;14;48;;;;;;;;;;;;1;;;;4.05;0;;;
HAR02;2018;12;3;17;19;43;;;;;;;;;;;;1;;;;4.05;0;;;
HAR02;2018;12;3;17;19;44;;;;;;;;;;;;1;;;;4.05;0;;;
HAR02;2018;12;3;17;19;51;;;;;;;;;;;;1;;;;4.05;0;;;
HAR02;2018;12;3;17;19;52;;;;;;;;;;;;1;;;;4.05;0;;;
HAR02;2018;12;3;17;19;53;;;;;;;;;;;;1;;;;4.05;0;;;
HAR02;2018;12;3;17;20;0;-37.854367;77.523750;0.2;16;4.05;25;;;;;;;;3751262S;07731425E;;0;;;
HAR02;2018;12;3;17;25;14;;;;;;;;;;;;1;;;;4.05;0;;;
HAR02;2018;12;3;17;25;15;;;;;;;;;;;;1;;;;4.05;0;;;
HAR02;2018;12;3;17;30;9;;;;;;;;;;;;1;;;;4.05;0;;;
HAR02;2018;12;3;17;30;10;;;;;;;;;;;;1;;;;4.05;0;;;
HAR02;2018;12;3;17;35;5;;;;;;;;;;;;1;;;;4.05;0;;;
HAR02;2018;12;3;17;35;6;;;;;;;;;;;;1;;;;4.05;0;;;
HAR02;2018;12;3;17;35;13;;;;;;;;;;;;1;;;;4.05;0;;;
HAR02;2018;12;3;17;35;14;;;;;;;;;;;;1;;;;4.05;0;;;
HAR02;2018;12;3;17;35;15;;;;;;;;;;;;1;;;;4.05;0;;;
HAR02;2018;12;3;17;36;0;-37.854483;77.523817;1.2;41;4.05;26.5;;;;;;;;3751269S;07731429E;;0;;;
HAR02;2018;12;3;17;41;2;;;;;;;;;;;;1;;;;4.04;0;;;
HAR02;2018;12;3;17;41;3;;;;;;;;;;;;1;;;;4.04;0;;;
HAR02;2018;12;3;17;45;56;;;;;;;;;;;;1;;;;4.04;0;;;
HAR02;2018;12;3;17;45;57;;;;;;;;;;;;1;;;;4.04;0;;;
HAR02;2018;12;3;17;50;52;;;;;;;;;;;;1;;;;4.04;0;;;
HAR02;2018;12;3;17;50;53;;;;;;;;;;;;1;;;;4.04;0;;;
HAR02;2018;12;3;17;51;0;-37.854383;77.523883;0.4;18;4.04;26;;;;;;;;3751263S;07731433E;;0;;;
HAR02;2018;12;3;17;51;0;;;;;;;;;;;;1;;;;4.04;0;;;
HAR02;2018;12;3;17;51;1;;;;;;;;;;;;1;;;;4.04;0;;;
HAR02;2018;12;3;17;51;2;;;;;;;;;;;;1;;;;4.04;0;;;
HAR02;2018;12;3;17;56;26;;;;;;;;;;;;1;;;;4.04;0;;;
HAR02;2018;12;3;17;56;27;;;;;;;;;;;;1;;;;4.04;0;;;
HAR02;2018;12;3;18;1;20;;;;;;;;;;;;1;;;;4.04;0;;;
HAR02;2018;12;3;18;1;21;;;;;;;;;;;;1;;;;4.04;0;;;
HAR02;2018;12;3;18;6;0;-37.854283;77.523867;0.5;12;4.04;23.5;;;;;;;;3751257S;07731432E;;0;;;
HAR02;2018;12;3;18;6;16;;;;;;;;;;;;1;;;;4.04;0;;;
HAR02;2018;12;3;18;6;17;;;;;;;;;;;;1;;;;4.04;0;;;
HAR02;2018;12;3;18;6;24;;;;;;;;;;;;1;;;;4.04;0;;;
HAR02;2018;12;3;18;6;25;;;;;;;;;;;;1;;;;4.04;0;;;
HAR02;2018;12;3;18;6;26;;;;;;;;;;;;1;;;;4.04;0;;;
HAR02;2018;12;3;18;11;42;;;;;;;;;;;;1;;;;4.04;0;;;
HAR02;2018;12;3;18;11;44;;;;;;;;;;;;1;;;;4.04;0;;;
HAR02;2018;12;3;18;16;37;;;;;;;;;;;;1;;;;4.04;0;;;
HAR02;2018;12;3;18;16;38;;;;;;;;;;;;1;;;;4.04;0;;;
HAR02;2018;12;3;18;21;33;;;;;;;;;;;;1;;;;4.04;0;;;
HAR02;2018;12;3;18;21;34;;;;;;;;;;;;1;;;;4.04;0;;;
HAR02;2018;12;3;18;21;41;;;;;;;;;;;;1;;;;4.04;0;;;
HAR02;2018;12;3;18;21;42;;;;;;;;;;;;1;;;;4.04;0;;;
HAR02;2018;12;3;18;21;44;;;;;;;;;;;;1;;;;4.04;0;;;
HAR02;2018;12;3;18;22;0;-37.854050;77.523917;0.5;19;4.04;24;;;;;;;;3751243S;07731435E;;0;;;
HAR02;2018;12;3;18;27;9;;;;;;;;;;;;1;;;;4.03;0;;;
HAR02;2018;12;3;18;27;10;;;;;;;;;;;;1;;;;4.03;0;;;
HAR02;2018;12;3;18;32;3;;;;;;;;;;;;1;;;;4.03;0;;;
HAR02;2018;12;3;18;32;4;;;;;;;;;;;;1;;;;4.03;0;;;
HAR02;2018;12;3;18;36;59;;;;;;;;;;;;1;;;;4.03;0;;;
HAR02;2018;12;3;18;37;0;-37.854117;77.523933;0.7;19;4.03;23.5;;;;;;;;3751247S;07731436E;;0;;;
HAR02;2018;12;3;18;37;0;;;;;;;;;;;;1;;;;4.03;0;;;
HAR02;2018;12;3;18;37;7;;;;;;;;;;;;1;;;;4.03;0;;;
HAR02;2018;12;3;18;37;8;;;;;;;;;;;;1;;;;4.03;0;;;
HAR02;2018;12;3;18;37;9;;;;;;;;;;;;1;;;;4.03;0;;;
HAR02;2018;12;3;18;42;32;;;;;;;;;;;;1;;;;4.03;0;;;
HAR02;2018;12;3;18;42;33;;;;;;;;;;;;1;;;;4.03;0;;;
HAR02;2018;12;3;18;47;27;;;;;;;;;;;;1;;;;4.03;0;;;
HAR02;2018;12;3;18;47;28;;;;;;;;;;;;1;;;;4.03;0;;;
HAR02;2018;12;3;18;52;23;;;;;;;;;;;;1;;;;4.03;0;;;
HAR02;2018;12;3;18;52;24;;;;;;;;;;;;1;;;;4.03;0;;;
HAR02;2018;12;3;18;52;31;;;;;;;;;;;;1;;;;4.03;0;;;
HAR02;2018;12;3;18;52;32;;;;;;;;;;;;1;;;;4.03;0;;;
HAR02;2018;12;3;18;52;33;;;;;;;;;;;;1;;;;4.03;0;;;
HAR02;2018;12;3;18;53;0;-37.854217;77.523850;0.9;45;4.03;23;;;;;;;;3751253S;07731431E;;0;;;
HAR02;2018;12;3;18;58;23;;;;;;;;;;;;1;;;;4.02;0;;;
HAR02;2018;12;3;18;58;24;;;;;;;;;;;;1;;;;4.02;0;;;
HAR02;2018;12;3;19;3;18;;;;;;;;;;;;1;;;;4.02;0;;;
HAR02;2018;12;3;19;3;19;;;;;;;;;;;;1;;;;4.02;0;;;
HAR02;2018;12;3;19;8;0;-37.854100;77.523917;0.8;14;4.02;24.5;;;;;;;;3751246S;07731435E;;0;;;
HAR02;2018;12;3;19;8;14;;;;;;;;;;;;1;;;;4.02;0;;;
HAR02;2018;12;3;19;8;15;;;;;;;;;;;;1;;;;4.02;0;;;
HAR02;2018;12;3;19;8;22;;;;;;;;;;;;1;;;;4.02;0;;;
HAR02;2018;12;3;19;8;23;;;;;;;;;;;;1;;;;4.02;0;;;
HAR02;2018;12;3;19;8;24;;;;;;;;;;;;1;;;;4.02;0;;;
HAR02;2018;12;3;19;13;43;;;;;;;;;;;;1;;;;4.02;0;;;
HAR02;2018;12;3;19;13;44;;;;;;;;;;;;1;;;;4.02;0;;;
HAR02;2018;12;3;19;18;38;;;;;;;;;;;;1;;;;4.02;0;;;
HAR02;2018;12;3;19;18;39;;;;;;;;;;;;1;;;;4.02;0;;;
HAR02;2018;12;3;19;23;34;;;;;;;;;;;;1;;;;4.02;0;;;
HAR02;2018;12;3;19;23;35;;;;;;;;;;;;1;;;;4.02;0;;;
HAR02;2018;12;3;19;23;42;;;;;;;;;;;;1;;;;4.02;0;;;
HAR02;2018;12;3;19;23;43;;;;;;;;;;;;1;;;;4.02;0;;;
HAR02;2018;12;3;19;23;44;;;;;;;;;;;;1;;;;4.02;0;;;
HAR02;2018;12;3;19;24;0;-37.854750;77.523683;0.7;14;4.02;25.5;;;;;;;;3751285S;07731421E;;0;;;
HAR02;2018;12;3;19;29;3;;;;;;;;;;;;1;;;;4.02;0;;;
HAR02;2018;12;3;19;29;4;;;;;;;;;;;;1;;;;4.02;0;;;
HAR02;2018;12;3;19;33;58;;;;;;;;;;;;1;;;;4.02;0;;;
HAR02;2018;12;3;19;33;59;;;;;;;;;;;;1;;;;4.02;0;;;
HAR02;2018;12;3;19;38;54;;;;;;;;;;;;1;;;;4.02;0;;;
HAR02;2018;12;3;19;38;55;;;;;;;;;;;;1;;;;4.02;0;;;
HAR02;2018;12;3;19;39;0;-37.854250;77.523933;0.5;16;4.02;25;;;;;;;;3751255S;07731436E;;0;;;
HAR02;2018;12;3;19;39;2;;;;;;;;;;;;1;;;;4.02;0;;;
HAR02;2018;12;3;19;39;3;;;;;;;;;;;;1;;;;4.02;0;;;
HAR02;2018;12;3;19;39;4;;;;;;;;;;;;1;;;;4.02;0;;;
HAR02;2018;12;3;19;44;26;;;;;;;;;;;;1;;;;4.02;0;;;
HAR02;2018;12;3;19;44;27;;;;;;;;;;;;1;;;;4.02;0;;;
HAR02;2018;12;3;19;49;20;;;;;;;;;;;;1;;;;4.02;0;;;
HAR02;2018;12;3;19;49;21;;;;;;;;;;;;1;;;;4.02;0;;;
HAR02;2018;12;3;19;54;16;;;;;;;;;;;;1;;;;4.02;0;;;
HAR02;2018;12;3;19;54;17;;;;;;;;;;;;1;;;;4.02;0;;;
HAR02;2018;12;3;19;54;24;;;;;;;;;;;;1;;;;4.02;0;;;
HAR02;2018;12;3;19;54;25;;;;;;;;;;;;1;;;;4.02;0;;;
HAR02;2018;12;3;19;54;26;;;;;;;;;;;;1;;;;4.02;0;;;
HAR02;2018;12;3;19;55;0;-37.854383;77.523833;0.4;29;4.02;25.5;;;;;;;;3751263S;07731430E;;0;;;
HAR02;2018;12;3;20;0;0;;;;;;;;;;;;1;;;;4.02;0;;;
HAR02;2018;12;3;20;0;1;;;;;;;;;;;;1;;;;4.02;0;;;
HAR02;2018;12;3;20;4;55;;;;;;;;;;;;1;;;;4.02;0;;;
HAR02;2018;12;3;20;4;56;;;;;;;;;;;;1;;;;4.02;0;;;
HAR02;2018;12;3;20;9;51;;;;;;;;;;;;1;;;;4.02;0;;;
HAR02;2018;12;3;20;9;52;;;;;;;;;;;;1;;;;4.02;0;;;
HAR02;2018;12;3;20;9;59;;;;;;;;;;;;1;;;;4.02;0;;;
HAR02;2018;12;3;20;10;0;-37.854317;77.523900;0.8;33;4.02;25.5;;;;;;;;3751259S;07731434E;;0;;;
HAR02;2018;12;3;20;10;0;;;;;;;;;;;;1;;;;4.02;0;;;
HAR02;2018;12;3;20;10;1;;;;;;;;;;;;1;;;;4.02;0;;;
HAR02;2018;12;3;20;15;39;;;;;;;;;;;;1;;;;4.01;0;;;
HAR02;2018;12;3;20;15;40;;;;;;;;;;;;1;;;;4.01;0;;;
HAR02;2018;12;3;20;20;34;;;;;;;;;;;;1;;;;4.02;0;;;
HAR02;2018;12;3;20;20;35;;;;;;;;;;;;1;;;;4.02;0;;;
HAR02;2018;12;3;20;25;30;;;;;;;;;;;;1;;;;4.02;0;;;
HAR02;2018;12;3;20;25;31;;;;;;;;;;;;1;;;;4.02;0;;;
HAR02;2018;12;3;20;25;38;;;;;;;;;;;;1;;;;4.02;0;;;
HAR02;2018;12;3;20;25;39;;;;;;;;;;;;1;;;;4.01;0;;;
HAR02;2018;12;3;20;25;40;;;;;;;;;;;;1;;;;4.01;0;;;
HAR02;2018;12;3;20;28;41;;;;;;;;;;1;;;;;;;0;;;
HAR02;2018;12;3;20;33;40;;;;;;;;;;;;1;;;;4;0;;;
HAR02;2018;12;3;20;33;41;;;;;;;;;;;;1;;;;4;0;;;
HAR02;2018;12;3;20;38;34;;;;;;;;;;;;1;;;;4;0;;;
HAR02;2018;12;3;20;38;35;;;;;;;;;;;;1;;;;4;0;;;
HAR02;2018;12;3;20;43;30;;;;;;;;;;;;1;;;;4;0;;;
HAR02;2018;12;3;20;43;31;;;;;;;;;;;;1;;;;4;0;;;
HAR02;2018;12;3;20;43;38;;;;;;;;;;;;1;;;;4;0;;;
HAR02;2018;12;3;20;43;39;;;;;;;;;;;;1;;;;4;0;;;
HAR02;2018;12;3;20;43;40;;;;;;;;;;;;1;;;;4;0;;;
HAR02;2018;12;3;20;46;0;-37.854400;77.523867;1.2;173;4;26.5;;;;;;;;3751264S;07731432E;;0;;;
HAR02;2018;12;3;20;51;45;;;;;;;;;;;;1;;;;3.98;0;;;
HAR02;2018;12;3;20;51;46;;;;;;;;;;;;1;;;;3.98;0;;;
HAR02;2018;12;3;20;56;40;;;;;;;;;;;;1;;;;3.99;0;;;
HAR02;2018;12;3;20;56;41;;;;;;;;;;;;1;;;;3.99;0;;;
HAR02;2018;12;3;21;1;36;;;;;;;;;;;;1;;;;3.99;0;;;
HAR02;2018;12;3;21;1;37;;;;;;;;;;;;1;;;;3.99;0;;;
HAR02;2018;12;3;21;1;44;;;;;;;;;;;;1;;;;3.99;0;;;
HAR02;2018;12;3;21;1;45;;;;;;;;;;;;1;;;;3.98;0;;;
HAR02;2018;12;3;21;1;46;;;;;;;;;;;;1;;;;3.98;0;;;
HAR02;2018;12;3;21;2;0;-37.854083;77.523983;0.5;19;3.98;26;;;;;;;;3751245S;07731439E;;0;;;
HAR02;2018;12;3;21;7;9;;;;;;;;;;;;1;;;;3.99;0;;;
HAR02;2018;12;3;21;7;10;;;;;;;;;;;;1;;;;3.98;0;;;
HAR02;2018;12;3;21;12;4;;;;;;;;;;;;1;;;;3.99;0;;;
HAR02;2018;12;3;21;12;5;;;;;;;;;;;;1;;;;3.99;0;;;
HAR02;2018;12;3;21;17;0;-37.854550;77.523900;0.2;15;3.99;25.5;;;;;;;;3751273S;07731434E;;0;;;
HAR02;2018;12;3;21;17;0;;;;;;;;;;;;1;;;;3.99;0;;;
HAR02;2018;12;3;21;17;1;;;;;;;;;;;;1;;;;3.99;0;;;
HAR02;2018;12;3;21;17;8;;;;;;;;;;;;1;;;;3.99;0;;;
HAR02;2018;12;3;21;17;9;;;;;;;;;;;;1;;;;3.98;0;;;
HAR02;2018;12;3;21;17;10;;;;;;;;;;;;1;;;;3.99;0;;;
HAR02;2018;12;3;21;22;32;;;;;;;;;;;;1;;;;3.99;0;;;
HAR02;2018;12;3;21;22;33;;;;;;;;;;;;1;;;;3.98;0;;;
HAR02;2018;12;3;21;27;26;;;;;;;;;;;;1;;;;3.99;0;;;
HAR02;2018;12;3;21;27;27;;;;;;;;;;;;1;;;;3.98;0;;;
HAR02;2018;12;3;21;32;22;;;;;;;;;;;;1;;;;3.99;0;;;
HAR02;2018;12;3;21;32;23;;;;;;;;;;;;1;;;;3.99;0;;;
HAR02;2018;12;3;21;32;30;;;;;;;;;;;;1;;;;3.99;0;;;
HAR02;2018;12;3;21;32;31;;;;;;;;;;;;1;;;;3.98;0;;;
HAR02;2018;12;3;21;32;32;;;;;;;;;;;;1;;;;3.98;0;;;
HAR02;2018;12;3;21;33;0;-37.854333;77.523800;1.3;46;3.98;23;;;;;;;;3751260S;07731428E;;0;;;
HAR02;2018;12;3;21;38;24;;;;;;;;;;;;1;;;;3.98;0;;;
HAR02;2018;12;3;21;38;25;;;;;;;;;;;;1;;;;3.98;0;;;
HAR02;2018;12;3;21;43;18;;;;;;;;;;;;1;;;;3.98;0;;;
HAR02;2018;12;3;21;43;19;;;;;;;;;;;;1;;;;3.98;0;;;
HAR02;2018;12;3;21;48;0;-37.854267;77.523900;1.0;11;3.98;22.5;;;;;;;;3751256S;07731434E;;0;;;
HAR02;2018;12;3;21;48;14;;;;;;;;;;;;1;;;;3.98;0;;;
HAR02;2018;12;3;21;48;15;;;;;;;;;;;;1;;;;3.98;0;;;
HAR02;2018;12;3;21;48;22;;;;;;;;;;;;1;;;;3.98;0;;;
HAR02;2018;12;3;21;48;23;;;;;;;;;;;;1;;;;3.98;0;;;
HAR02;2018;12;3;21;48;24;;;;;;;;;;;;1;;;;3.98;0;;;
HAR02;2018;12;3;21;53;40;;;;;;;;;;;;1;;;;3.98;0;;;
HAR02;2018;12;3;21;53;41;;;;;;;;;;;;1;;;;3.98;0;;;
HAR02;2018;12;3;21;58;35;;;;;;;;;;;;1;;;;3.98;0;;;
HAR02;2018;12;3;21;58;36;;;;;;;;;;;;1;;;;3.98;0;;;
HAR02;2018;12;3;22;3;31;;;;;;;;;;;;1;;;;3.98;0;;;
HAR02;2018;12;3;22;3;32;;;;;;;;;;;;1;;;;3.98;0;;;
HAR02;2018;12;3;22;3;39;;;;;;;;;;;;1;;;;3.98;0;;;
HAR02;2018;12;3;22;3;40;;;;;;;;;;;;1;;;;3.98;0;;;
HAR02;2018;12;3;22;3;41;;;;;;;;;;;;1;;;;3.98;0;;;
HAR02;2018;12;3;22;4;0;-37.854183;77.523867;0.4;62;3.98;22.5;;;;;;;;3751251S;07731432E;;0;;;
HAR02;2018;12;3;22;9;49;;;;;;;;;;;;1;;;;3.98;0;;;
HAR02;2018;12;3;22;9;50;;;;;;;;;;;;1;;;;3.98;0;;;
HAR02;2018;12;3;22;14;43;;;;;;;;;;;;1;;;;3.98;0;;;
HAR02;2018;12;3;22;14;44;;;;;;;;;;;;1;;;;3.98;0;;;
HAR02;2018;12;3;22;19;39;;;;;;;;;;;;1;;;;3.98;0;;;
HAR02;2018;12;3;22;19;40;;;;;;;;;;;;1;;;;3.98;0;;;
HAR02;2018;12;3;22;19;47;;;;;;;;;;;;1;;;;3.98;0;;;
HAR02;2018;12;3;22;19;48;;;;;;;;;;;;1;;;;3.98;0;;;
HAR02;2018;12;3;22;19;49;;;;;;;;;;;;1;;;;3.98;0;;;
HAR02;2018;12;3;22;20;0;-37.854350;77.523850;1.2;23;3.98;23;;;;;;;;3751261S;07731431E;;0;;;
HAR02;2018;12;3;22;25;20;;;;;;;;;;;;1;;;;3.98;0;;;
HAR02;2018;12;3;22;25;21;;;;;;;;;;;;1;;;;3.98;0;;;
HAR02;2018;12;3;22;30;14;;;;;;;;;;;;1;;;;3.98;0;;;
HAR02;2018;12;3;22;30;15;;;;;;;;;;;;1;;;;3.98;0;;;
HAR02;2018;12;3;22;35;0;-37.854767;77.523900;0.6;26;3.98;23.5;;;;;;;;3751286S;07731434E;;0;;;
HAR02;2018;12;3;22;35;10;;;;;;;;;;;;1;;;;3.98;0;;;
HAR02;2018;12;3;22;35;11;;;;;;;;;;;;1;;;;3.98;0;;;
HAR02;2018;12;3;22;35;18;;;;;;;;;;;;1;;;;3.98;0;;;
HAR02;2018;12;3;22;35;19;;;;;;;;;;;;1;;;;3.98;0;;;
HAR02;2018;12;3;22;35;20;;;;;;;;;;;;1;;;;3.98;0;;;
HAR02;2018;12;3;22;40;51;;;;;;;;;;;;1;;;;3.98;0;;;
HAR02;2018;12;3;22;40;52;;;;;;;;;;;;1;;;;3.98;0;;;
HAR02;2018;12;3;22;45;45;;;;;;;;;;;;1;;;;3.98;0;;;
HAR02;2018;12;3;22;50;41;;;;;;;;;;;;1;;;;3.98;0;;;
HAR02;2018;12;3;22;50;42;;;;;;;;;;;;1;;;;3.98;0;;;
HAR02;2018;12;3;22;50;49;;;;;;;;;;;;1;;;;3.98;0;;;
HAR02;2018;12;3;22;50;50;;;;;;;;;;;;1;;;;3.98;0;;;
HAR02;2018;12;3;22;50;51;;;;;;;;;;;;1;;;;3.98;0;;;
HAR02;2018;12;3;22;51;0;-37.854183;77.523883;1.4;16;3.98;23;;;;;;;;3751251S;07731433E;;0;;;
HAR02;2018;12;3;22;56;13;;;;;;;;;;;;1;;;;3.98;0;;;
HAR02;2018;12;3;22;56;14;;;;;;;;;;;;1;;;;3.98;0;;;
HAR02;2018;12;3;23;1;8;;;;;;;;;;;;1;;;;3.98;0;;;
HAR02;2018;12;3;23;1;9;;;;;;;;;;;;1;;;;3.98;0;;;
HAR02;2018;12;3;23;6;0;-37.854550;77.523767;2.4;14;3.98;22.5;;;;;;;;3751273S;07731426E;;0;;;
HAR02;2018;12;3;23;6;5;;;;;;;;;;;;1;;;;3.98;0;;;
HAR02;2018;12;3;23;6;12;;;;;;;;;;;;1;;;;3.98;0;;;
HAR02;2018;12;3;23;6;13;;;;;;;;;;;;1;;;;3.98;0;;;
HAR02;2018;12;3;23;6;14;;;;;;;;;;;;1;;;;3.98;0;;;
HAR02;2018;12;3;23;11;32;;;;;;;;;;;;1;;;;3.98;0;;;
HAR02;2018;12;3;23;11;33;;;;;;;;;;;;1;;;;3.98;0;;;
HAR02;2018;12;3;23;16;26;;;;;;;;;;;;1;;;;3.98;0;;;
HAR02;2018;12;3;23;16;27;;;;;;;;;;;;1;;;;3.98;0;;;
HAR02;2018;12;3;23;21;22;;;;;;;;;;;;1;;;;3.98;0;;;
HAR02;2018;12;3;23;21;23;;;;;;;;;;;;1;;;;3.98;0;;;
HAR02;2018;12;3;23;21;31;;;;;;;;;;;;1;;;;3.98;0;;;
HAR02;2018;12;3;23;21;32;;;;;;;;;;;;1;;;;3.98;0;;;
HAR02;2018;12;3;23;22;0;-37.854333;77.523867;0.1;41;3.98;23.5;;;;;;;;3751260S;07731432E;;0;;;
HAR02;2018;12;3;23;27;18;;;;;;;;;;;;1;;;;3.98;0;;;
HAR02;2018;12;3;23;27;19;;;;;;;;;;;;1;;;;3.97;0;;;
HAR02;2018;12;3;23;32;13;;;;;;;;;;;;1;;;;3.98;0;;;
HAR02;2018;12;3;23;32;14;;;;;;;;;;;;1;;;;3.97;0;;;
HAR02;2018;12;3;23;37;0;-37.854400;77.523733;0.7;14;3.98;24;;;;;;;;3751264S;07731424E;;0;;;
HAR02;2018;12;3;23;37;9;;;;;;;;;;;;1;;;;3.98;0;;;
HAR02;2018;12;3;23;37;10;;;;;;;;;;;;1;;;;3.98;0;;;
HAR02;2018;12;3;23;37;17;;;;;;;;;;;;1;;;;3.98;0;;;
HAR02;2018;12;3;23;37;18;;;;;;;;;;;;1;;;;3.98;0;;;
HAR02;2018;12;3;23;37;19;;;;;;;;;;;;1;;;;3.98;0;;;
HAR02;2018;12;3;23;42;40;;;;;;;;;;;;1;;;;3.97;0;;;
HAR02;2018;12;3;23;42;41;;;;;;;;;;;;1;;;;3.97;0;;;
HAR02;2018;12;3;23;47;34;;;;;;;;;;;;1;;;;3.97;0;;;
HAR02;2018;12;3;23;47;35;;;;;;;;;;;;1;;;;3.97;0;;;
HAR02;2018;12;3;23;52;30;;;;;;;;;;;;1;;;;3.98;0;;;
HAR02;2018;12;3;23;52;31;;;;;;;;;;;;1;;;;3.98;0;;;
HAR02;2018;12;3;23;52;38;;;;;;;;;;;;1;;;;3.97;0;;;
HAR02;2018;12;3;23;52;39;;;;;;;;;;;;1;;;;3.97;0;;;
HAR02;2018;12;3;23;52;40;;;;;;;;;;;;1;;;;3.97;0;;;
HAR02;2018;12;3;23;53;0;-37.854600;77.523850;0.3;46;3.97;25;;;;;;;;3751276S;07731431E;;0;;;
HAR02;2018;12;3;23;58;30;;;;;;;;;;;;1;;;;3.97;0;;;
HAR02;2018;12;3;23;58;31;;;;;;;;;;;;1;;;;3.97;0;;;
HAR02;2018;12;4;0;3;25;;;;;;;;;;;;1;;;;3.97;0;;;
HAR02;2018;12;4;0;3;26;;;;;;;;;;;;1;;;;3.97;0;;;
HAR02;2018;12;4;0;8;0;-37.854300;77.523917;0.8;6;3.97;25;;;;;;;;3751258S;07731435E;;0;;;
HAR02;2018;12;4;0;8;21;;;;;;;;;;;;1;;;;3.97;0;;;
HAR02;2018;12;4;0;8;22;;;;;;;;;;;;1;;;;3.97;0;;;
HAR02;2018;12;4;0;8;29;;;;;;;;;;;;1;;;;3.97;0;;;
HAR02;2018;12;4;0;8;30;;;;;;;;;;;;1;;;;3.97;0;;;
HAR02;2018;12;4;0;8;31;;;;;;;;;;;;1;;;;3.97;0;;;
HAR02;2018;12;4;0;13;41;;;;;;;;;;;;1;;;;3.97;0;;;
HAR02;2018;12;4;0;13;42;;;;;;;;;;;;1;;;;3.97;0;;;
HAR02;2018;12;4;0;18;36;;;;;;;;;;;;1;;;;3.97;0;;;
HAR02;2018;12;4;0;18;37;;;;;;;;;;;;1;;;;3.97;0;;;
HAR02;2018;12;4;0;23;0;-37.854400;77.524167;0.1;7;3.97;26;;;;;;;;3751264S;07731450E;;0;;;
HAR02;2018;12;4;0;23;32;;;;;;;;;;;;1;;;;3.97;0;;;
HAR02;2018;12;4;0;23;33;;;;;;;;;;;;1;;;;3.97;0;;;
HAR02;2018;12;4;0;23;40;;;;;;;;;;;;1;;;;3.97;0;;;
HAR02;2018;12;4;0;23;41;;;;;;;;;;;;1;;;;3.97;0;;;
HAR02;2018;12;4;0;23;42;;;;;;;;;;;;1;;;;3.97;0;;;
HAR02;2018;12;4;0;28;55;;;;;;;;;;;;1;;;;3.97;0;;;
HAR02;2018;12;4;0;28;56;;;;;;;;;;;;1;;;;3.97;0;;;
HAR02;2018;12;4;0;33;49;;;;;;;;;;;;1;;;;3.97;0;;;
HAR02;2018;12;4;0;33;50;;;;;;;;;;;;1;;;;3.97;0;;;
HAR02;2018;12;4;0;38;46;;;;;;;;;;;;1;;;;3.97;0;;;
HAR02;2018;12;4;0;38;47;;;;;;;;;;;;1;;;;3.97;0;;;
HAR02;2018;12;4;0;38;54;;;;;;;;;;;;1;;;;3.97;0;;;
HAR02;2018;12;4;0;38;56;;;;;;;;;;;;1;;;;3.97;0;;;
HAR02;2018;12;4;0;39;0;-37.854367;77.523983;0.5;7;3.97;26;;;;;;;;3751262S;07731439E;;0;;;
HAR02;2018;12;4;0;44;9;;;;;;;;;;;;1;;;;3.97;0;;;
HAR02;2018;12;4;0;44;10;;;;;;;;;;;;1;;;;3.97;0;;;
HAR02;2018;12;4;0;49;3;;;;;;;;;;;;1;;;;3.97;0;;;
HAR02;2018;12;4;0;49;4;;;;;;;;;;;;1;;;;3.97;0;;;
HAR02;2018;12;4;0;53;59;;;;;;;;;;;;1;;;;3.97;0;;;
HAR02;2018;12;4;0;54;0;-37.854183;77.524383;0.2;38;3.97;26;;;;;;;;3751251S;07731463E;;0;;;
HAR02;2018;12;4;0;54;0;;;;;;;;;;;;1;;;;3.97;0;;;
HAR02;2018;12;4;0;54;7;;;;;;;;;;;;1;;;;3.97;0;;;
HAR02;2018;12;4;0;54;8;;;;;;;;;;;;1;;;;3.97;0;;;
HAR02;2018;12;4;0;54;9;;;;;;;;;;;;1;;;;3.97;0;;;
HAR02;2018;12;4;0;59;53;;;;;;;;;;;;1;;;;3.97;0;;;
HAR02;2018;12;4;0;59;54;;;;;;;;;;;;1;;;;3.96;0;;;
HAR02;2018;12;4;1;4;48;;;;;;;;;;;;1;;;;3.97;0;;;
HAR02;2018;12;4;1;4;49;;;;;;;;;;;;1;;;;3.96;0;;;
HAR02;2018;12;4;1;9;45;;;;;;;;;;;;1;;;;3.97;0;;;
HAR02;2018;12;4;1;9;53;;;;;;;;;;;;1;;;;3.96;0;;;
HAR02;2018;12;4;1;9;54;;;;;;;;;;;;1;;;;3.96;0;;;
HAR02;2018;12;4;1;10;0;-37.854367;77.523867;1.0;29;3.96;27;;;;;;;;3751262S;07731432E;;0;;;
HAR02;2018;12;4;1;15;29;;;;;;;;;;;;1;;;;3.96;0;;;
HAR02;2018;12;4;1;15;30;;;;;;;;;;;;1;;;;3.96;0;;;
HAR02;2018;12;4;1;20;24;;;;;;;;;;;;1;;;;3.96;0;;;
HAR02;2018;12;4;1;20;25;;;;;;;;;;;;1;;;;3.96;0;;;
HAR02;2018;12;4;1;25;0;-37.854233;77.523983;0.3;8;3.96;27;;;;;;;;3751254S;07731439E;;0;;;
HAR02;2018;12;4;1;25;20;;;;;;;;;;;;1;;;;3.96;0;;;
HAR02;2018;12;4;1;25;21;;;;;;;;;;;;1;;;;3.96;0;;;
HAR02;2018;12;4;1;25;28;;;;;;;;;;;;1;;;;3.96;0;;;
HAR02;2018;12;4;1;25;29;;;;;;;;;;;;1;;;;3.96;0;;;
HAR02;2018;12;4;1;25;30;;;;;;;;;;;;1;;;;3.96;0;;;
HAR02;2018;12;4;1;30;42;;;;;;;;;;;;1;;;;3.96;0;;;
HAR02;2018;12;4;1;30;43;;;;;;;;;;;;1;;;;3.96;0;;;
HAR02;2018;12;4;1;35;37;;;;;;;;;;;;1;;;;3.96;0;;;
HAR02;2018;12;4;1;35;38;;;;;;;;;;;;1;;;;3.96;0;;;
HAR02;2018;12;4;1;40;35;;;;;;;;;;;;1;;;;3.96;0;;;
HAR02;2018;12;4;1;40;41;;;;;;;;;;;;1;;;;3.96;0;;;
HAR02;2018;12;4;1;40;42;;;;;;;;;;;;1;;;;3.96;0;;;
HAR02;2018;12;4;1;40;43;;;;;;;;;;;;1;;;;3.96;0;;;
HAR02;2018;12;4;1;41;0;-37.854500;77.523833;0.1;35;3.96;27;;;;;;;;3751270S;07731430E;;0;;;
HAR02;2018;12;4;1;46;24;;;;;;;;;;;;1;;;;3.96;0;;;
HAR02;2018;12;4;1;46;25;;;;;;;;;;;;1;;;;3.96;0;;;
HAR02;2018;12;4;1;51;18;;;;;;;;;;;;1;;;;3.96;0;;;
HAR02;2018;12;4;1;51;19;;;;;;;;;;;;1;;;;3.96;0;;;
HAR02;2018;12;4;1;56;14;;;;;;;;;;;;1;;;;3.96;0;;;
HAR02;2018;12;4;1;56;15;;;;;;;;;;;;1;;;;3.96;0;;;
HAR02;2018;12;4;1;56;22;;;;;;;;;;;;1;;;;3.96;0;;;
HAR02;2018;12;4;1;56;23;;;;;;;;;;;;1;;;;3.96;0;;;
HAR02;2018;12;4;1;56;24;;;;;;;;;;;;1;;;;3.96;0;;;
HAR02;2018;12;4;1;57;0;-37.854367;77.523883;0.2;32;3.96;27;;;;;;;;3751262S;07731433E;;0;;;
HAR02;2018;12;4;2;2;2;;;;;;;;;;;;1;;;;3.95;0;;;
HAR02;2018;12;4;2;2;3;;;;;;;;;;;;1;;;;3.95;0;;;
HAR02;2018;12;4;2;6;56;;;;;;;;;;;;1;;;;3.96;0;;;
HAR02;2018;12;4;2;6;57;;;;;;;;;;;;1;;;;3.95;0;;;
HAR02;2018;12;4;2;11;52;;;;;;;;;;;;1;;;;3.96;0;;;
HAR02;2018;12;4;2;11;53;;;;;;;;;;;;1;;;;3.95;0;;;
HAR02;2018;12;4;2;12;0;-37.854383;77.523933;0.2;22;3.95;27.5;;;;;;;;3751263S;07731436E;;0;;;
HAR02;2018;12;4;2;12;0;;;;;;;;;;;;1;;;;3.95;0;;;
HAR02;2018;12;4;2;12;1;;;;;;;;;;;;1;;;;3.95;0;;;
HAR02;2018;12;4;2;12;2;;;;;;;;;;;;1;;;;3.95;0;;;
HAR02;2018;12;4;2;17;31;;;;;;;;;;;;1;;;;3.95;0;;;
HAR02;2018;12;4;2;17;32;;;;;;;;;;;;1;;;;3.95;0;;;
HAR02;2018;12;4;2;22;24;;;;;;;;;;;;1;;;;3.95;0;;;
HAR02;2018;12;4;2;27;20;;;;;;;;;;;;1;;;;3.95;0;;;
HAR02;2018;12;4;2;27;21;;;;;;;;;;;;1;;;;3.95;0;;;
HAR02;2018;12;4;2;27;28;;;;;;;;;;;;1;;;;3.95;0;;;
HAR02;2018;12;4;2;27;29;;;;;;;;;;;;1;;;;3.95;0;;;
HAR02;2018;12;4;2;27;30;;;;;;;;;;;;1;;;;3.95;0;;;
HAR02;2018;12;4;2;28;0;-37.854417;77.523867;0.1;24;3.95;27.5;;;;;;;;3751265S;07731432E;;0;;;
HAR02;2018;12;4;2;33;3;;;;;;;;;;;;1;;;;3.95;0;;;
HAR02;2018;12;4;2;37;54;;;;;;;;;;;;1;;;;3.95;0;;;
HAR02;2018;12;4;2;37;55;;;;;;;;;;;;1;;;;3.95;0;;;
HAR02;2018;12;4;2;42;51;;;;;;;;;;;;1;;;;3.95;0;;;
HAR02;2018;12;4;2;42;58;;;;;;;;;;;;1;;;;3.95;0;;;
HAR02;2018;12;4;2;42;59;;;;;;;;;;;;1;;;;3.95;0;;;
HAR02;2018;12;4;2;43;0;;;;;;;;;;;;1;;;;3.95;0;;;
HAR02;2018;12;4;2;43;0;-37.854100;77.524083;0.3;51;3.95;25;;;;;;;;3751246S;07731445E;;0;;;
HAR02;2018;12;4;2;48;57;;;;;;;;;;;;1;;;;3.95;0;;;
HAR02;2018;12;4;2;48;58;;;;;;;;;;;;1;;;;3.95;0;;;
HAR02;2018;12;4;2;53;51;;;;;;;;;;;;1;;;;3.95;0;;;
HAR02;2018;12;4;2;53;53;;;;;;;;;;;;1;;;;3.95;0;;;
HAR02;2018;12;4;2;58;47;;;;;;;;;;;;1;;;;3.95;0;;;
HAR02;2018;12;4;2;58;48;;;;;;;;;;;;1;;;;3.95;0;;;
HAR02;2018;12;4;2;58;55;;;;;;;;;;;;1;;;;3.95;0;;;
HAR02;2018;12;4;2;58;57;;;;;;;;;;;;1;;;;3.95;0;;;
HAR02;2018;12;4;2;59;0;-37.854667;77.523867;1.6;23;3.95;28.5;;;;;;;;3751280S;07731432E;;0;;;
HAR02;2018;12;4;3;4;25;;;;;;;;;;;;1;;;;3.95;0;;;
HAR02;2018;12;4;3;4;26;;;;;;;;;;;;1;;;;3.95;0;;;
HAR02;2018;12;4;3;9;20;;;;;;;;;;;;1;;;;3.95;0;;;
HAR02;2018;12;4;3;9;21;;;;;;;;;;;;1;;;;3.95;0;;;
HAR02;2018;12;4;3;14;16;;;;;;;;;;;;1;;;;3.95;0;;;
HAR02;2018;12;4;3;14;17;;;;;;;;;;;;1;;;;3.95;0;;;
HAR02;2018;12;4;3;14;24;;;;;;;;;;;;1;;;;3.95;0;;;
HAR02;2018;12;4;3;14;25;;;;;;;;;;;;1;;;;3.95;0;;;
HAR02;2018;12;4;3;14;26;;;;;;;;;;;;1;;;;3.95;0;;;
HAR02;2018;12;4;3;15;0;-37.854300;77.523967;0.5;31;3.95;29;;;;;;;;3751258S;07731438E;;0;;;
HAR02;2018;12;4;3;20;1;;;;;;;;;;;;1;;;;3.95;0;;;
HAR02;2018;12;4;3;20;2;;;;;;;;;;;;1;;;;3.95;0;;;
HAR02;2018;12;4;3;24;56;;;;;;;;;;;;1;;;;3.95;0;;;
HAR02;2018;12;4;3;24;57;;;;;;;;;;;;1;;;;3.95;0;;;
HAR02;2018;12;4;3;29;52;;;;;;;;;;;;1;;;;3.95;0;;;
HAR02;2018;12;4;3;29;53;;;;;;;;;;;;1;;;;3.95;0;;;
HAR02;2018;12;4;3;30;0;-37.854333;77.523900;0.3;13;3.95;29;;;;;;;;3751260S;07731434E;;0;;;
HAR02;2018;12;4;3;30;0;;;;;;;;;;;;1;;;;3.95;0;;;
HAR02;2018;12;4;3;30;1;;;;;;;;;;;;1;;;;3.95;0;;;
HAR02;2018;12;4;3;30;2;;;;;;;;;;;;1;;;;3.95;0;;;
HAR02;2018;12;4;3;35;22;;;;;;;;;;;;1;;;;3.95;0;;;
HAR02;2018;12;4;3;35;23;;;;;;;;;;;;1;;;;3.95;0;;;
HAR02;2018;12;4;3;40;16;;;;;;;;;;;;1;;;;3.95;0;;;
HAR02;2018;12;4;3;40;17;;;;;;;;;;;;1;;;;3.95;0;;;
HAR02;2018;12;4;3;45;0;-37.854400;77.523867;1.8;5;3.95;29;;;;;;;;3751264S;07731432E;;0;;;
HAR02;2018;12;4;3;45;12;;;;;;;;;;;;1;;;;3.95;0;;;
HAR02;2018;12;4;3;45;13;;;;;;;;;;;;1;;;;3.95;0;;;
HAR02;2018;12;4;3;45;20;;;;;;;;;;;;1;;;;3.95;0;;;
HAR02;2018;12;4;3;45;21;;;;;;;;;;;;1;;;;3.95;0;;;
HAR02;2018;12;4;3;45;22;;;;;;;;;;;;1;;;;3.95;0;;;
HAR02;2018;12;4;3;50;31;;;;;;;;;;;;1;;;;3.95;0;;;
HAR02;2018;12;4;3;50;32;;;;;;;;;;;;1;;;;3.94;0;;;
HAR02;2018;12;4;3;55;26;;;;;;;;;;;;1;;;;3.95;0;;;
HAR02;2018;12;4;3;55;27;;;;;;;;;;;;1;;;;3.95;0;;;
HAR02;2018;12;4;4;0;0;-37.854733;77.523567;0.3;6;3.95;28.5;;;;;;;;3751284S;07731414E;;0;;;
HAR02;2018;12;4;4;0;22;;;;;;;;;;;;1;;;;3.95;0;;;
HAR02;2018;12;4;4;0;23;;;;;;;;;;;;1;;;;3.95;0;;;
HAR02;2018;12;4;4;0;30;;;;;;;;;;;;1;;;;3.95;0;;;
HAR02;2018;12;4;4;0;31;;;;;;;;;;;;1;;;;3.95;0;;;
HAR02;2018;12;4;4;0;32;;;;;;;;;;;;1;;;;3.95;0;;;
HAR02;2018;12;4;4;5;43;;;;;;;;;;;;1;;;;3.95;0;;;
HAR02;2018;12;4;4;5;44;;;;;;;;;;;;1;;;;3.94;0;;;
HAR02;2018;12;4;4;10;38;;;;;;;;;;;;1;;;;3.95;0;;;
HAR02;2018;12;4;4;10;39;;;;;;;;;;;;1;;;;3.95;0;;;
HAR02;2018;12;4;4;15;0;-37.854883;77.523317;0.9;6;3.94;31;;;;;;;;3751293S;07731399E;;0;;;
HAR02;2018;12;4;4;15;34;;;;;;;;;;;;1;;;;3.95;0;;;
HAR02;2018;12;4;4;15;35;;;;;;;;;;;;1;;;;3.94;0;;;
HAR02;2018;12;4;4;15;42;;;;;;;;;;;;1;;;;3.95;0;;;
HAR02;2018;12;4;4;15;43;;;;;;;;;;;;1;;;;3.94;0;;;
HAR02;2018;12;4;4;15;44;;;;;;;;;;;;1;;;;3.94;0;;;
HAR02;2018;12;4;4;20;56;;;;;;;;;;;;1;;;;3.94;0;;;
HAR02;2018;12;4;4;20;57;;;;;;;;;;;;1;;;;3.94;0;;;
HAR02;2018;12;4;4;25;50;;;;;;;;;;;;1;;;;3.95;0;;;
HAR02;2018;12;4;4;25;51;;;;;;;;;;;;1;;;;3.94;0;;;
HAR02;2018;12;4;4;30;46;;;;;;;;;;;;1;;;;3.94;0;;;
HAR02;2018;12;4;4;30;47;;;;;;;;;;;;1;;;;3.94;0;;;
HAR02;2018;12;4;4;30;54;;;;;;;;;;;;1;;;;3.95;0;;;
HAR02;2018;12;4;4;30;55;;;;;;;;;;;;1;;;;3.94;0;;;
HAR02;2018;12;4;4;30;56;;;;;;;;;;;;1;;;;3.94;0;;;
HAR02;2018;12;4;4;31;0;-37.854317;77.524000;1.9;5;3.94;34;;;;;;;;3751259S;07731440E;;0;;;
HAR02;2018;12;4;4;36;6;;;;;;;;;;;;1;;;;3.94;0;;;
HAR02;2018;12;4;4;36;7;;;;;;;;;;;;1;;;;3.94;0;;;
HAR02;2018;12;4;4;41;0;;;;;;;;;;;;1;;;;3.95;0;;;
HAR02;2018;12;4;4;41;1;;;;;;;;;;;;1;;;;3.94;0;;;
HAR02;2018;12;4;4;45;56;;;;;;;;;;;;1;;;;3.94;0;;;
HAR02;2018;12;4;4;45;57;;;;;;;;;;;;1;;;;3.94;0;;;
HAR02;2018;12;4;4;46;0;-37.854367;77.523800;0.0;20;3.94;36;;;;;;;;3751262S;07731428E;;0;;;
HAR02;2018;12;4;4;46;4;;;;;;;;;;;;1;;;;3.94;0;;;
HAR02;2018;12;4;4;46;5;;;;;;;;;;;;1;;;;3.94;0;;;
HAR02;2018;12;4;4;46;6;;;;;;;;;;;;1;;;;3.94;0;;;
HAR02;2018;12;4;4;51;32;;;;;;;;;;;;1;;;;3.94;0;;;
HAR02;2018;12;4;4;51;33;;;;;;;;;;;;1;;;;3.94;0;;;
HAR02;2018;12;4;4;56;26;;;;;;;;;;;;1;;;;3.94;0;;;
HAR02;2018;12;4;4;56;27;;;;;;;;;;;;1;;;;3.94;0;;;
HAR02;2018;12;4;5;1;22;;;;;;;;;;;;1;;;;3.94;0;;;
HAR02;2018;12;4;5;1;23;;;;;;;;;;;;1;;;;3.94;0;;;
HAR02;2018;12;4;5;1;30;;;;;;;;;;;;1;;;;3.94;0;;;
HAR02;2018;12;4;5;1;31;;;;;;;;;;;;1;;;;3.94;0;;;
HAR02;2018;12;4;5;1;32;;;;;;;;;;;;1;;;;3.94;0;;;
HAR02;2018;12;4;5;2;0;-37.854417;77.523800;0.2;41;3.94;37.5;;;;;;;;3751265S;07731428E;;0;;;
HAR02;2018;12;4;5;7;17;;;;;;;;;;;;1;;;;3.94;0;;;
HAR02;2018;12;4;5;7;18;;;;;;;;;;;;1;;;;3.94;0;;;
HAR02;2018;12;4;5;12;12;;;;;;;;;;;;1;;;;3.94;0;;;
HAR02;2018;12;4;5;12;13;;;;;;;;;;;;1;;;;3.94;0;;;
HAR02;2018;12;4;5;17;0;-37.854500;77.523783;0.6;15;3.94;36.5;;;;;;;;3751270S;07731427E;;0;;;
HAR02;2018;12;4;5;17;8;;;;;;;;;;;;1;;;;3.94;0;;;
HAR02;2018;12;4;5;17;9;;;;;;;;;;;;1;;;;3.94;0;;;
HAR02;2018;12;4;5;17;16;;;;;;;;;;;;1;;;;3.94;0;;;
HAR02;2018;12;4;5;17;17;;;;;;;;;;;;1;;;;3.94;0;;;
HAR02;2018;12;4;5;17;18;;;;;;;;;;;;1;;;;3.94;0;;;
HAR02;2018;12;4;5;22;38;;;;;;;;;;;;1;;;;3.94;0;;;
HAR02;2018;12;4;5;22;39;;;;;;;;;;;;1;;;;3.94;0;;;
HAR02;2018;12;4;5;27;33;;;;;;;;;;;;1;;;;3.94;0;;;
HAR02;2018;12;4;5;27;34;;;;;;;;;;;;1;;;;3.94;0;;;
HAR02;2018;12;4;5;32;29;;;;;;;;;;;;1;;;;3.94;0;;;
HAR02;2018;12;4;5;32;30;;;;;;;;;;;;1;;;;3.94;0;;;
HAR02;2018;12;4;5;32;37;;;;;;;;;;;;1;;;;3.94;0;;;
HAR02;2018;12;4;5;32;38;;;;;;;;;;;;1;;;;3.94;0;;;
HAR02;2018;12;4;5;32;39;;;;;;;;;;;;1;;;;3.94;0;;;
HAR02;2018;12;4;5;33;0;-37.854133;77.523867;0.1;33;3.94;37;;;;;;;;3751248S;07731432E;;0;;;
HAR02;2018;12;4;5;38;19;;;;;;;;;;;;1;;;;3.93;0;;;
HAR02;2018;12;4;5;38;20;;;;;;;;;;;;1;;;;3.93;0;;;
HAR02;2018;12;4;5;43;13;;;;;;;;;;;;1;;;;3.93;0;;;
HAR02;2018;12;4;5;43;14;;;;;;;;;;;;1;;;;3.93;0;;;
HAR02;2018;12;4;5;48;9;;;;;;;;;;;;1;;;;3.94;0;;;
HAR02;2018;12;4;5;48;10;;;;;;;;;;;;1;;;;3.93;0;;;
HAR02;2018;12;4;5;48;17;;;;;;;;;;;;1;;;;3.93;0;;;
HAR02;2018;12;4;5;48;18;;;;;;;;;;;;1;;;;3.93;0;;;
HAR02;2018;12;4;5;48;19;;;;;;;;;;;;1;;;;3.93;0;;;
HAR02;2018;12;4;5;49;0;-37.854383;77.523883;0.2;36;3.93;38;;;;;;;;3751263S;07731433E;;0;;;
HAR02;2018;12;4;5;54;1;;;;;;;;;;;;1;;;;3.93;0;;;
HAR02;2018;12;4;5;54;2;;;;;;;;;;;;1;;;;3.93;0;;;
HAR02;2018;12;4;5;58;55;;;;;;;;;;;;1;;;;3.93;0;;;
HAR02;2018;12;4;5;58;56;;;;;;;;;;;;1;;;;3.93;0;;;
HAR02;2018;12;4;6;3;51;;;;;;;;;;;;1;;;;3.93;0;;;
HAR02;2018;12;4;6;3;52;;;;;;;;;;;;1;;;;3.93;0;;;
HAR02;2018;12;4;6;3;59;;;;;;;;;;;;1;;;;3.93;0;;;
HAR02;2018;12;4;6;4;0;-37.854017;77.524017;0.2;41;3.93;36;;;;;;;;3751241S;07731441E;;0;;;
HAR02;2018;12;4;6;4;0;;;;;;;;;;;;1;;;;3.93;0;;;
HAR02;2018;12;4;6;4;1;;;;;;;;;;;;1;;;;3.93;0;;;
HAR02;2018;12;4;6;9;48;;;;;;;;;;;;1;;;;3.93;0;;;
HAR02;2018;12;4;6;9;49;;;;;;;;;;;;1;;;;3.92;0;;;
HAR02;2018;12;4;6;14;42;;;;;;;;;;;;1;;;;3.93;0;;;
HAR02;2018;12;4;6;14;43;;;;;;;;;;;;1;;;;3.93;0;;;
HAR02;2018;12;4;6;19;38;;;;;;;;;;;;1;;;;3.93;0;;;
HAR02;2018;12;4;6;19;39;;;;;;;;;;;;1;;;;3.92;0;;;
HAR02;2018;12;4;6;19;46;;;;;;;;;;;;1;;;;3.93;0;;;
HAR02;2018;12;4;6;19;47;;;;;;;;;;;;1;;;;3.92;0;;;
HAR02;2018;12;4;6;19;48;;;;;;;;;;;;1;;;;3.93;0;;;
HAR02;2018;12;4;6;20;0;-37.854383;77.523967;0.1;19;3.93;39;;;;;;;;3751263S;07731438E;;0;;;
HAR02;2018;12;4;6;25;12;;;;;;;;;;;;1;;;;3.92;0;;;
HAR02;2018;12;4;6;25;13;;;;;;;;;;;;1;;;;3.92;0;;;
HAR02;2018;12;4;6;30;7;;;;;;;;;;;;1;;;;3.92;0;;;
HAR02;2018;12;4;6;30;8;;;;;;;;;;;;1;;;;3.92;0;;;
HAR02;2018;12;4;6;35;0;-37.854233;77.523900;0.1;18;3.92;39;;;;;;;;3751254S;07731434E;;0;;;
HAR02;2018;12;4;6;35;3;;;;;;;;;;;;1;;;;3.92;0;;;
HAR02;2018;12;4;6;35;4;;;;;;;;;;;;1;;;;3.92;0;;;
HAR02;2018;12;4;6;35;11;;;;;;;;;;;;1;;;;3.92;0;;;
HAR02;2018;12;4;6;35;12;;;;;;;;;;;;1;;;;3.92;0;;;
HAR02;2018;12;4;6;35;13;;;;;;;;;;;;1;;;;3.92;0;;;
HAR02;2018;12;4;6;40;37;;;;;;;;;;;;1;;;;3.93;0;;;
HAR02;2018;12;4;6;40;38;;;;;;;;;;;;1;;;;3.93;0;;;
HAR02;2018;12;4;6;45;31;;;;;;;;;;;;1;;;;3.93;0;;;
HAR02;2018;12;4;6;45;32;;;;;;;;;;;;1;;;;3.93;0;;;
HAR02;2018;12;4;6;50;0;-37.856917;77.508183;27.;15;3.94;32.5;;;;;;;;3751415S;07730491E;;0;;;
HAR02;2018;12;4;7;6;0;-37.856033;77.522617;21.;13;3.95;21;;;;;;;;3751362S;07731357E;;0;;;
HAR02;2018;12;4;7;16;14;;;;;;;;;;;;1;;;;3.95;0;;;
HAR02;2018;12;4;7;16;15;;;;;;;;;;;;1;;;;3.95;0;;;
HAR02;2018;12;4;7;21;8;;;;;;;;;;;;1;;;;3.95;0;;;
HAR02;2018;12;4;7;21;9;;;;;;;;;;;;1;;;;3.95;0;;;
HAR02;2018;12;4;7;21;16;;;;;;;;;;;;1;;;;3.96;0;;;
HAR02;2018;12;4;7;21;17;;;;;;;;;;;;1;;;;3.96;0;;;
HAR02;2018;12;4;7;21;18;;;;;;;;;;;;1;;;;3.95;0;;;
HAR02;2018;12;4;7;22;0;-37.854217;77.523950;0.2;36;3.95;23;;;;;;;;3751253S;07731437E;;0;;;
HAR02;2018;12;4;7;27;1;;;;;;;;;;;;1;;;;3.95;0;;;
HAR02;2018;12;4;7;27;2;;;;;;;;;;;;1;;;;3.95;0;;;
HAR02;2018;12;4;7;31;54;;;;;;;;;;;;1;;;;3.95;0;;;
HAR02;2018;12;4;7;31;55;;;;;;;;;;;;1;;;;3.95;0;;;
HAR02;2018;12;4;7;36;50;;;;;;;;;;;;1;;;;3.96;0;;;
HAR02;2018;12;4;7;36;51;;;;;;;;;;;;1;;;;3.96;0;;;
HAR02;2018;12;4;7;36;58;;;;;;;;;;;;1;;;;3.96;0;;;
HAR02;2018;12;4;7;36;59;;;;;;;;;;;;1;;;;3.96;0;;;
HAR02;2018;12;4;7;37;0;;;;;;;;;;;;1;;;;3.96;0;;;
HAR02;2018;12;4;7;38;0;-37.854683;77.524100;0.3;88;3.96;31.5;;;;;;;;3751281S;07731446E;;0;;;
HAR02;2018;12;4;7;43;36;;;;;;;;;;;;1;;;;3.95;0;;;
HAR02;2018;12;4;7;43;37;;;;;;;;;;;;1;;;;3.95;0;;;
HAR02;2018;12;4;7;48;30;;;;;;;;;;;;1;;;;3.95;0;;;
HAR02;2018;12;4;7;48;31;;;;;;;;;;;;1;;;;3.95;0;;;
HAR02;2018;12;4;7;53;26;;;;;;;;;;;;1;;;;3.95;0;;;
HAR02;2018;12;4;7;53;27;;;;;;;;;;;;1;;;;3.95;0;;;
HAR02;2018;12;4;7;53;34;;;;;;;;;;;;1;;;;3.95;0;;;
HAR02;2018;12;4;7;53;35;;;;;;;;;;;;1;;;;3.95;0;;;
HAR02;2018;12;4;7;53;36;;;;;;;;;;;;1;;;;3.95;0;;;
HAR02;2018;12;4;7;54;0;-37.854700;77.523900;0.1;22;3.95;34.5;;;;;;;;3751282S;07731434E;;0;;;
HAR02;2018;12;4;7;59;2;;;;;;;;;;;;1;;;;3.95;0;;;
HAR02;2018;12;4;7;59;3;;;;;;;;;;;;1;;;;3.95;0;;;
HAR02;2018;12;4;8;3;57;;;;;;;;;;;;1;;;;3.95;0;;;
HAR02;2018;12;4;8;3;58;;;;;;;;;;;;1;;;;3.95;0;;;
HAR02;2018;12;4;8;8;53;;;;;;;;;;;;1;;;;3.95;0;;;
HAR02;2018;12;4;8;8;54;;;;;;;;;;;;1;;;;3.95;0;;;
HAR02;2018;12;4;8;9;2;;;;;;;;;;;;1;;;;3.95;0;;;
HAR02;2018;12;4;8;9;3;;;;;;;;;;;;1;;;;3.95;0;;;
HAR02;2018;12;4;8;9;4;;;;;;;;;;;;1;;;;3.95;0;;;
HAR02;2018;12;4;8;10;0;-37.854417;77.523867;0.2;103;3.95;37;;;;;;;;3751265S;07731432E;;0;;;
HAR02;2018;12;4;8;15;53;;;;;;;;;;;;1;;;;3.94;0;;;
HAR02;2018;12;4;8;15;54;;;;;;;;;;;;1;;;;3.94;0;;;
HAR02;2018;12;4;8;20;48;;;;;;;;;;;;1;;;;3.94;0;;;
HAR02;2018;12;4;8;20;49;;;;;;;;;;;;1;;;;3.94;0;;;
HAR02;2018;12;4;8;25;44;;;;;;;;;;;;1;;;;3.94;0;;;
HAR02;2018;12;4;8;25;45;;;;;;;;;;;;1;;;;3.94;0;;;
HAR02;2018;12;4;8;25;52;;;;;;;;;;;;1;;;;3.94;0;;;
HAR02;2018;12;4;8;25;53;;;;;;;;;;;;1;;;;3.94;0;;;
HAR02;2018;12;4;8;25;54;;;;;;;;;;;;1;;;;3.94;0;;;
HAR02;2018;12;4;8;26;0;-37.854433;77.523833;0.2;15;3.94;38.5;;;;;;;;3751266S;07731430E;;0;;;
HAR02;2018;12;4;8;31;14;;;;;;;;;;;;1;;;;3.94;0;;;
HAR02;2018;12;4;8;31;15;;;;;;;;;;;;1;;;;3.94;0;;;
HAR02;2018;12;4;8;36;9;;;;;;;;;;;;1;;;;3.94;0;;;
HAR02;2018;12;4;8;36;10;;;;;;;;;;;;1;;;;3.94;0;;;
HAR02;2018;12;4;8;41;0;-37.854433;77.524167;0.5;15;3.94;38.5;;;;;;;;3751266S;07731450E;;0;;;
HAR02;2018;12;4;8;41;5;;;;;;;;;;;;1;;;;3.94;0;;;
HAR02;2018;12;4;8;41;6;;;;;;;;;;;;1;;;;3.94;0;;;
HAR02;2018;12;4;8;41;13;;;;;;;;;;;;1;;;;3.94;0;;;
HAR02;2018;12;4;8;41;14;;;;;;;;;;;;1;;;;3.94;0;;;
HAR02;2018;12;4;8;41;15;;;;;;;;;;;;1;;;;3.94;0;;;
HAR02;2018;12;4;8;46;34;;;;;;;;;;;;1;;;;3.93;0;;;
HAR02;2018;12;4;8;46;35;;;;;;;;;;;;1;;;;3.93;0;;;
HAR02;2018;12;4;8;51;29;;;;;;;;;;;;1;;;;3.93;0;;;
HAR02;2018;12;4;8;51;30;;;;;;;;;;;;1;;;;3.93;0;;;
HAR02;2018;12;4;8;56;25;;;;;;;;;;;;1;;;;3.94;0;;;
HAR02;2018;12;4;8;56;26;;;;;;;;;;;;1;;;;3.93;0;;;
HAR02;2018;12;4;8;56;33;;;;;;;;;;;;1;;;;3.93;0;;;
HAR02;2018;12;4;8;56;34;;;;;;;;;;;;1;;;;3.93;0;;;
HAR02;2018;12;4;8;56;35;;;;;;;;;;;;1;;;;3.93;0;;;
HAR02;2018;12;4;8;57;0;-37.854133;77.523950;1.4;44;3.93;38.5;;;;;;;;3751248S;07731437E;;0;;;
HAR02;2018;12;4;9;2;24;;;;;;;;;;;;1;;;;3.93;0;;;
HAR02;2018;12;4;9;2;25;;;;;;;;;;;;1;;;;3.93;0;;;
HAR02;2018;12;4;9;12;0;-37.846617;77.491083;1.0;7;3.95;24;;;;;;;;3750797S;07729465E;;0;;;
HAR02;2018;12;4;9;27;0;-37.858817;77.521000;31.;8;3.95;21.5;;;;;;;;3751529S;07731260E;;0;;;
HAR02;2018;12;4;9;27;34;;;;;;;;;;;;1;;;;3.95;0;;;
HAR02;2018;12;4;9;27;36;;;;;;;;;;;;1;;;;3.95;0;;;
HAR02;2018;12;4;9;27;40;;;;;;;;;;;;1;;;;3.95;0;;;
HAR02;2018;12;4;9;32;56;;;;;;;;;;;;1;;;;3.96;0;;;
HAR02;2018;12;4;9;32;57;;;;;;;;;;;;1;;;;3.96;0;;;
HAR02;2018;12;4;9;37;51;;;;;;;;;;;;1;;;;3.96;0;;;
HAR02;2018;12;4;9;37;52;;;;;;;;;;;;1;;;;3.96;0;;;
HAR02;2018;12;4;9;42;47;;;;;;;;;;;;1;;;;3.96;0;;;
HAR02;2018;12;4;9;42;48;;;;;;;;;;;;1;;;;3.96;0;;;
HAR02;2018;12;4;9;42;55;;;;;;;;;;;;1;;;;3.96;0;;;
HAR02;2018;12;4;9;42;56;;;;;;;;;;;;1;;;;3.96;0;;;
HAR02;2018;12;4;9;42;57;;;;;;;;;;;;1;;;;3.96;0;;;
HAR02;2018;12;4;9;43;0;-37.854333;77.523850;1.0;27;3.96;23.5;;;;;;;;3751260S;07731431E;;0;;;
HAR02;2018;12;4;9;48;30;;;;;;;;;;;;1;;;;3.95;0;;;
HAR02;2018;12;4;9;48;31;;;;;;;;;;;;1;;;;3.95;0;;;
HAR02;2018;12;4;9;53;24;;;;;;;;;;;;1;;;;3.95;0;;;
HAR02;2018;12;4;9;53;25;;;;;;;;;;;;1;;;;3.95;0;;;
HAR02;2018;12;4;9;58;0;-37.854667;77.523800;0.0;17;3.95;30.5;;;;;;;;3751280S;07731428E;;0;;;
HAR02;2018;12;4;9;58;20;;;;;;;;;;;;1;;;;3.96;0;;;
HAR02;2018;12;4;9;58;21;;;;;;;;;;;;1;;;;3.96;0;;;
HAR02;2018;12;4;9;58;28;;;;;;;;;;;;1;;;;3.96;0;;;
HAR02;2018;12;4;9;58;29;;;;;;;;;;;;1;;;;3.95;0;;;
HAR02;2018;12;4;9;58;30;;;;;;;;;;;;1;;;;3.95;0;;;
HAR02;2018;12;4;10;3;53;;;;;;;;;;;;1;;;;3.95;0;;;
HAR02;2018;12;4;10;3;54;;;;;;;;;;;;1;;;;3.95;0;;;
HAR02;2018;12;4;10;8;47;;;;;;;;;;;;1;;;;3.95;0;;;
HAR02;2018;12;4;10;8;48;;;;;;;;;;;;1;;;;3.95;0;;;
HAR02;2018;12;4;10;13;43;;;;;;;;;;;;1;;;;3.95;0;;;
HAR02;2018;12;4;10;13;44;;;;;;;;;;;;1;;;;3.96;0;;;
HAR02;2018;12;4;10;13;51;;;;;;;;;;;;1;;;;3.96;0;;;
HAR02;2018;12;4;10;13;52;;;;;;;;;;;;1;;;;3.95;0;;;
HAR02;2018;12;4;10;13;53;;;;;;;;;;;;1;;;;3.95;0;;;
HAR02;2018;12;4;10;14;0;-37.854233;77.523983;1.3;24;3.95;32;;;;;;;;3751254S;07731439E;;0;;;
HAR02;2018;12;4;10;19;22;;;;;;;;;;;;1;;;;3.95;0;;;
HAR02;2018;12;4;10;19;23;;;;;;;;;;;;1;;;;3.95;0;;;
HAR02;2018;12;4;10;24;17;;;;;;;;;;;;1;;;;3.95;0;;;
HAR02;2018;12;4;10;24;18;;;;;;;;;;;;1;;;;3.95;0;;;
HAR02;2018;12;4;10;29;0;-37.854467;77.524067;1.6;12;3.95;31;;;;;;;;3751268S;07731444E;;0;;;
HAR02;2018;12;4;10;29;13;;;;;;;;;;;;1;;;;3.95;0;;;
HAR02;2018;12;4;10;29;14;;;;;;;;;;;;1;;;;3.95;0;;;
HAR02;2018;12;4;10;29;21;;;;;;;;;;;;1;;;;3.95;0;;;
HAR02;2018;12;4;10;29;22;;;;;;;;;;;;1;;;;3.95;0;;;
HAR02;2018;12;4;10;29;23;;;;;;;;;;;;1;;;;3.95;0;;;
HAR02;2018;12;4;10;34;41;;;;;;;;;;;;1;;;;3.95;0;;;
HAR02;2018;12;4;10;34;42;;;;;;;;;;;;1;;;;3.95;0;;;
HAR02;2018;12;4;10;39;35;;;;;;;;;;;;1;;;;3.95;0;;;
HAR02;2018;12;4;10;39;36;;;;;;;;;;;;1;;;;3.95;0;;;
HAR02;2018;12;4;10;44;31;;;;;;;;;;;;1;;;;3.95;0;;;
HAR02;2018;12;4;10;44;32;;;;;;;;;;;;1;;;;3.95;0;;;
HAR02;2018;12;4;10;44;39;;;;;;;;;;;;1;;;;3.95;0;;;
HAR02;2018;12;4;10;44;40;;;;;;;;;;;;1;;;;3.95;0;;;
HAR02;2018;12;4;10;44;41;;;;;;;;;;;;1;;;;3.95;0;;;
HAR02;2018;12;4;10;45;0;-37.854450;77.524000;0.4;16;3.95;27.5;;;;;;;;3751267S;07731440E;;0;;;
HAR02;2018;12;4;10;50;3;;;;;;;;;;;;1;;;;3.95;0;;;
HAR02;2018;12;4;10;50;4;;;;;;;;;;;;1;;;;3.95;0;;;
HAR02;2018;12;4;10;54;57;;;;;;;;;;;;1;;;;3.95;0;;;
HAR02;2018;12;4;10;54;58;;;;;;;;;;;;1;;;;3.95;0;;;
HAR02;2018;12;4;10;59;53;;;;;;;;;;;;1;;;;3.95;0;;;
HAR02;2018;12;4;10;59;54;;;;;;;;;;;;1;;;;3.95;0;;;
HAR02;2018;12;4;11;0;0;-37.854467;77.523917;0.2;18;3.95;28.5;;;;;;;;3751268S;07731435E;;0;;;
HAR02;2018;12;4;11;0;1;;;;;;;;;;;;1;;;;3.95;0;;;
HAR02;2018;12;4;11;0;2;;;;;;;;;;;;1;;;;3.95;0;;;
HAR02;2018;12;4;11;0;3;;;;;;;;;;;;1;;;;3.95;0;;;
HAR02;2018;12;4;11;5;26;;;;;;;;;;;;1;;;;3.95;0;;;
HAR02;2018;12;4;11;5;27;;;;;;;;;;;;1;;;;3.95;0;;;
HAR02;2018;12;4;11;10;20;;;;;;;;;;;;1;;;;3.95;0;;;
HAR02;2018;12;4;11;10;21;;;;;;;;;;;;1;;;;3.95;0;;;
HAR02;2018;12;4;11;15;0;-37.854550;77.523900;0.2;15;3.95;28;;;;;;;;3751273S;07731434E;;0;;;
HAR02;2018;12;4;11;15;16;;;;;;;;;;;;1;;;;3.95;0;;;
HAR02;2018;12;4;11;15;17;;;;;;;;;;;;1;;;;3.95;0;;;
HAR02;2018;12;4;11;15;24;;;;;;;;;;;;1;;;;3.95;0;;;
HAR02;2018;12;4;11;15;25;;;;;;;;;;;;1;;;;3.95;0;;;
HAR02;2018;12;4;11;15;26;;;;;;;;;;;;1;;;;3.95;0;;;
HAR02;2018;12;4;11;20;49;;;;;;;;;;;;1;;;;3.95;0;;;
HAR02;2018;12;4;11;20;50;;;;;;;;;;;;1;;;;3.95;0;;;
HAR02;2018;12;4;11;25;43;;;;;;;;;;;;1;;;;3.95;0;;;
HAR02;2018;12;4;11;25;44;;;;;;;;;;;;1;;;;3.95;0;;;
HAR02;2018;12;4;11;30;39;;;;;;;;;;;;1;;;;3.95;0;;;
HAR02;2018;12;4;11;30;40;;;;;;;;;;;;1;;;;3.95;0;;;
HAR02;2018;12;4;11;30;47;;;;;;;;;;;;1;;;;3.95;0;;;
HAR02;2018;12;4;11;30;48;;;;;;;;;;;;1;;;;3.95;0;;;
HAR02;2018;12;4;11;30;49;;;;;;;;;;;;1;;;;3.95;0;;;
HAR02;2018;12;4;11;31;0;-37.854400;77.523733;1.6;53;3.95;29;;;;;;;;3751264S;07731424E;;0;;;
HAR02;2018;12;4;11;36;46;;;;;;;;;;;;1;;;;3.94;0;;;
HAR02;2018;12;4;11;36;47;;;;;;;;;;;;1;;;;3.94;0;;;
HAR02;2018;12;4;11;41;41;;;;;;;;;;;;1;;;;3.95;0;;;
HAR02;2018;12;4;11;41;42;;;;;;;;;;;;1;;;;3.94;0;;;
HAR02;2018;12;4;11;46;37;;;;;;;;;;;;1;;;;3.94;0;;;
HAR02;2018;12;4;11;46;38;;;;;;;;;;;;1;;;;3.94;0;;;
HAR02;2018;12;4;11;46;45;;;;;;;;;;;;1;;;;3.94;0;;;
HAR02;2018;12;4;11;46;46;;;;;;;;;;;;1;;;;3.94;0;;;
HAR02;2018;12;4;11;46;47;;;;;;;;;;;;1;;;;3.94;0;;;
HAR02;2018;12;4;11;47;0;-37.854467;77.524050;0.9;16;3.94;28.5;;;;;;;;3751268S;07731443E;;0;;;
HAR02;2018;12;4;11;52;9;;;;;;;;;;;;1;;;;3.94;0;;;
HAR02;2018;12;4;11;52;10;;;;;;;;;;;;1;;;;3.94;0;;;
HAR02;2018;12;4;11;57;3;;;;;;;;;;;;1;;;;3.94;0;;;
HAR02;2018;12;4;11;57;4;;;;;;;;;;;;1;;;;3.94;0;;;
HAR02;2018;12;4;12;1;59;;;;;;;;;;;;1;;;;3.94;0;;;
HAR02;2018;12;4;12;2;0;-37.854400;77.524050;0.0;9;3.94;27;;;;;;;;3751264S;07731443E;;0;;;
HAR02;2018;12;4;12;2;0;;;;;;;;;;;;1;;;;3.94;0;;;
HAR02;2018;12;4;12;2;7;;;;;;;;;;;;1;;;;3.94;0;;;
HAR02;2018;12;4;12;2;8;;;;;;;;;;;;1;;;;3.94;0;;;
HAR02;2018;12;4;12;2;9;;;;;;;;;;;;1;;;;3.94;0;;;
HAR02;2018;12;4;12;7;24;;;;;;;;;;;;1;;;;3.94;0;;;
HAR02;2018;12;4;12;7;25;;;;;;;;;;;;1;;;;3.94;0;;;
HAR02;2018;12;4;12;12;20;;;;;;;;;;;;1;;;;3.94;0;;;
HAR02;2018;12;4;12;17;0;-37.854333;77.524017;0.1;9;3.94;27.5;;;;;;;;3751260S;07731441E;;0;;;
HAR02;2018;12;4;12;17;15;;;;;;;;;;;;1;;;;3.94;0;;;
HAR02;2018;12;4;12;17;16;;;;;;;;;;;;1;;;;3.94;0;;;
HAR02;2018;12;4;12;17;23;;;;;;;;;;;;1;;;;3.94;0;;;
HAR02;2018;12;4;12;17;24;;;;;;;;;;;;1;;;;3.94;0;;;
HAR02;2018;12;4;12;17;25;;;;;;;;;;;;1;;;;3.94;0;;;
HAR02;2018;12;4;12;22;41;;;;;;;;;;;;1;;;;3.94;0;;;
HAR02;2018;12;4;12;22;42;;;;;;;;;;;;1;;;;3.94;0;;;
HAR02;2018;12;4;12;27;37;;;;;;;;;;;;1;;;;3.94;0;;;
HAR02;2018;12;4;12;32;31;;;;;;;;;;;;1;;;;3.94;0;;;
HAR02;2018;12;4;12;32;32;;;;;;;;;;;;1;;;;3.94;0;;;
HAR02;2018;12;4;12;32;39;;;;;;;;;;;;1;;;;3.94;0;;;
HAR02;2018;12;4;12;32;40;;;;;;;;;;;;1;;;;3.94;0;;;
HAR02;2018;12;4;12;32;41;;;;;;;;;;;;1;;;;3.94;0;;;
HAR02;2018;12;4;12;34;0;-37.854317;77.523900;0.2;73;3.94;29.5;;;;;;;;3751259S;07731434E;;0;;;
HAR02;2018;12;4;12;38;59;;;;;;;;;;;;1;;;;3.93;0;;;
HAR02;2018;12;4;12;39;0;;;;;;;;;;;;1;;;;3.93;0;;;
HAR02;2018;12;4;12;43;54;;;;;;;;;;;;1;;;;3.93;0;;;
HAR02;2018;12;4;12;43;55;;;;;;;;;;;;1;;;;3.93;0;;;
HAR02;2018;12;4;12;48;50;;;;;;;;;;;;1;;;;3.94;0;;;
HAR02;2018;12;4;12;48;51;;;;;;;;;;;;1;;;;3.93;0;;;
HAR02;2018;12;4;12;48;58;;;;;;;;;;;;1;;;;3.93;0;;;
HAR02;2018;12;4;12;48;59;;;;;;;;;;;;1;;;;3.93;0;;;
HAR02;2018;12;4;12;49;0;;;;;;;;;;;;1;;;;3.93;0;;;
HAR02;2018;12;4;12;49;0;-37.853833;77.523683;0.4;12;3.93;31;;;;;;;;3751230S;07731421E;;0;;;
HAR02;2018;12;4;12;54;17;;;;;;;;;;;;1;;;;3.93;0;;;
HAR02;2018;12;4;12;54;18;;;;;;;;;;;;1;;;;3.93;0;;;
HAR02;2018;12;4;12;59;12;;;;;;;;;;;;1;;;;3.93;0;;;
HAR02;2018;12;4;12;59;13;;;;;;;;;;;;1;;;;3.93;0;;;
HAR02;2018;12;4;13;4;0;-37.854083;77.523883;2.5;6;3.93;30.5;;;;;;;;3751245S;07731433E;;0;;;
HAR02;2018;12;4;13;4;8;;;;;;;;;;;;1;;;;3.93;0;;;
HAR02;2018;12;4;13;4;9;;;;;;;;;;;;1;;;;3.93;0;;;
HAR02;2018;12;4;13;4;16;;;;;;;;;;;;1;;;;3.93;0;;;
HAR02;2018;12;4;13;4;17;;;;;;;;;;;;1;;;;3.93;0;;;
HAR02;2018;12;4;13;4;18;;;;;;;;;;;;1;;;;3.93;0;;;
HAR02;2018;12;4;13;9;29;;;;;;;;;;;;1;;;;3.93;0;;;
HAR02;2018;12;4;13;9;30;;;;;;;;;;;;1;;;;3.93;0;;;
HAR02;2018;12;4;13;14;23;;;;;;;;;;;;1;;;;3.93;0;;;
HAR02;2018;12;4;13;14;24;;;;;;;;;;;;1;;;;3.93;0;;;
HAR02;2018;12;4;13;19;0;-37.854250;77.523933;0.7;16;3.93;30.5;;;;;;;;3751255S;07731436E;;0;;;
HAR02;2018;12;4;13;19;19;;;;;;;;;;;;1;;;;3.93;0;;;
HAR02;2018;12;4;13;19;20;;;;;;;;;;;;1;;;;3.93;0;;;
HAR02;2018;12;4;13;19;27;;;;;;;;;;;;1;;;;3.93;0;;;
HAR02;2018;12;4;13;19;28;;;;;;;;;;;;1;;;;3.93;0;;;
HAR02;2018;12;4;13;19;29;;;;;;;;;;;;1;;;;3.93;0;;;
HAR02;2018;12;4;13;24;51;;;;;;;;;;;;1;;;;3.93;0;;;
HAR02;2018;12;4;13;24;52;;;;;;;;;;;;1;;;;3.93;0;;;
HAR02;2018;12;4;13;29;46;;;;;;;;;;;;1;;;;3.93;0;;;
HAR02;2018;12;4;13;29;47;;;;;;;;;;;;1;;;;3.93;0;;;
HAR02;2018;12;4;13;34;42;;;;;;;;;;;;1;;;;3.93;0;;;
HAR02;2018;12;4;13;34;43;;;;;;;;;;;;1;;;;3.93;0;;;
HAR02;2018;12;4;13;34;50;;;;;;;;;;;;1;;;;3.93;0;;;
HAR02;2018;12;4;13;34;51;;;;;;;;;;;;1;;;;3.93;0;;;
HAR02;2018;12;4;13;34;52;;;;;;;;;;;;1;;;;3.93;0;;;
HAR02;2018;12;4;13;35;0;-37.854217;77.523950;1.8;16;3.93;30.5;;;;;;;;3751253S;07731437E;;0;;;
HAR02;2018;12;4;13;40;14;;;;;;;;;;;;1;;;;3.93;0;;;
HAR02;2018;12;4;13;40;15;;;;;;;;;;;;1;;;;3.93;0;;;
HAR02;2018;12;4;13;45;9;;;;;;;;;;;;1;;;;3.93;0;;;
HAR02;2018;12;4;13;45;10;;;;;;;;;;;;1;;;;3.93;0;;;
HAR02;2018;12;4;13;50;0;-37.854100;77.523983;0.5;19;3.93;27;;;;;;;;3751246S;07731439E;;0;;;
HAR02;2018;12;4;13;50;5;;;;;;;;;;;;1;;;;3.93;0;;;
HAR02;2018;12;4;13;50;6;;;;;;;;;;;;1;;;;3.93;0;;;
HAR02;2018;12;4;13;50;13;;;;;;;;;;;;1;;;;3.93;0;;;
HAR02;2018;12;4;13;50;14;;;;;;;;;;;;1;;;;3.93;0;;;
HAR02;2018;12;4;13;50;15;;;;;;;;;;;;1;;;;3.93;0;;;
HAR02;2018;12;4;13;55;40;;;;;;;;;;;;1;;;;3.93;0;;;
HAR02;2018;12;4;13;55;41;;;;;;;;;;;;1;;;;3.93;0;;;
HAR02;2018;12;4;14;0;34;;;;;;;;;;;;1;;;;3.93;0;;;
HAR02;2018;12;4;14;0;35;;;;;;;;;;;;1;;;;3.93;0;;;
HAR02;2018;12;4;14;5;0;-37.854517;77.523750;0.0;10;3.93;26;;;;;;;;3751271S;07731425E;;0;;;
HAR02;2018;12;4;14;5;30;;;;;;;;;;;;1;;;;3.93;0;;;
HAR02;2018;12;4;14;5;31;;;;;;;;;;;;1;;;;3.92;0;;;
HAR02;2018;12;4;14;5;38;;;;;;;;;;;;1;;;;3.93;0;;;
HAR02;2018;12;4;14;5;39;;;;;;;;;;;;1;;;;3.93;0;;;
HAR02;2018;12;4;14;5;40;;;;;;;;;;;;1;;;;3.93;0;;;
HAR02;2018;12;4;14;10;55;;;;;;;;;;;;1;;;;3.92;0;;;
HAR02;2018;12;4;14;10;56;;;;;;;;;;;;1;;;;3.93;0;;;
HAR02;2018;12;4;14;15;50;;;;;;;;;;;;1;;;;3.93;0;;;
HAR02;2018;12;4;14;15;51;;;;;;;;;;;;1;;;;3.92;0;;;
HAR02;2018;12;4;14;20;46;;;;;;;;;;;;1;;;;3.93;0;;;
HAR02;2018;12;4;14;20;47;;;;;;;;;;;;1;;;;3.93;0;;;
HAR02;2018;12;4;14;20;54;;;;;;;;;;;;1;;;;3.93;0;;;
HAR02;2018;12;4;14;20;55;;;;;;;;;;;;1;;;;3.92;0;;;
HAR02;2018;12;4;14;20;56;;;;;;;;;;;;1;;;;3.92;0;;;
HAR02;2018;12;4;14;21;0;-37.854333;77.523800;0.2;28;3.92;25.5;;;;;;;;3751260S;07731428E;;0;;;
HAR02;2018;12;4;14;26;29;;;;;;;;;;;;1;;;;3.92;0;;;
HAR02;2018;12;4;14;26;30;;;;;;;;;;;;1;;;;3.92;0;;;
HAR02;2018;12;4;14;31;24;;;;;;;;;;;;1;;;;3.93;0;;;
HAR02;2018;12;4;14;31;25;;;;;;;;;;;;1;;;;3.92;0;;;
HAR02;2018;12;4;14;36;20;;;;;;;;;;;;1;;;;3.92;0;;;
HAR02;2018;12;4;14;36;21;;;;;;;;;;;;1;;;;3.92;0;;;
HAR02;2018;12;4;14;36;28;;;;;;;;;;;;1;;;;3.93;0;;;
HAR02;2018;12;4;14;36;29;;;;;;;;;;;;1;;;;3.92;0;;;
HAR02;2018;12;4;14;36;30;;;;;;;;;;;;1;;;;3.92;0;;;
HAR02;2018;12;4;14;37;0;-37.854033;77.523833;1.1;32;3.92;24.5;;;;;;;;3751242S;07731430E;;0;;;
HAR02;2018;12;4;14;42;7;;;;;;;;;;;;1;;;;3.92;0;;;
HAR02;2018;12;4;14;42;8;;;;;;;;;;;;1;;;;3.92;0;;;
HAR02;2018;12;4;14;47;2;;;;;;;;;;;;1;;;;3.92;0;;;
HAR02;2018;12;4;14;47;3;;;;;;;;;;;;1;;;;3.92;0;;;
HAR02;2018;12;4;14;51;58;;;;;;;;;;;;1;;;;3.92;0;;;
HAR02;2018;12;4;14;51;59;;;;;;;;;;;;1;;;;3.92;0;;;
HAR02;2018;12;4;14;52;6;;;;;;;;;;;;1;;;;3.92;0;;;
HAR02;2018;12;4;14;52;7;;;;;;;;;;;;1;;;;3.92;0;;;
HAR02;2018;12;4;14;52;8;;;;;;;;;;;;1;;;;3.92;0;;;
HAR02;2018;12;4;14;53;0;-37.854367;77.523833;1.6;65;3.92;24;;;;;;;;3751262S;07731430E;;0;;;
HAR02;2018;12;4;14;58;18;;;;;;;;;;;;1;;;;3.92;0;;;
HAR02;2018;12;4;14;58;19;;;;;;;;;;;;1;;;;3.92;0;;;
HAR02;2018;12;4;15;3;14;;;;;;;;;;;;1;;;;3.92;0;;;
HAR02;2018;12;4;15;3;15;;;;;;;;;;;;1;;;;3.92;0;;;
HAR02;2018;12;4;15;8;0;-37.854533;77.523817;0.3;13;3.91;23;;;;;;;;3751272S;07731429E;;0;;;
HAR02;2018;12;4;15;8;9;;;;;;;;;;;;1;;;;3.92;0;;;
HAR02;2018;12;4;15;8;10;;;;;;;;;;;;1;;;;3.92;0;;;
HAR02;2018;12;4;15;8;17;;;;;;;;;;;;1;;;;3.92;0;;;
HAR02;2018;12;4;15;8;18;;;;;;;;;;;;1;;;;3.92;0;;;
HAR02;2018;12;4;15;8;19;;;;;;;;;;;;1;;;;3.91;0;;;
HAR02;2018;12;4;15;13;37;;;;;;;;;;;;1;;;;3.92;0;;;
HAR02;2018;12;4;15;13;38;;;;;;;;;;;;1;;;;3.91;0;;;
HAR02;2018;12;4;15;18;31;;;;;;;;;;;;1;;;;3.92;0;;;
HAR02;2018;12;4;15;18;32;;;;;;;;;;;;1;;;;3.92;0;;;
HAR02;2018;12;4;15;23;27;;;;;;;;;;;;1;;;;3.92;0;;;
HAR02;2018;12;4;15;23;28;;;;;;;;;;;;1;;;;3.92;0;;;
HAR02;2018;12;4;15;23;35;;;;;;;;;;;;1;;;;3.92;0;;;
HAR02;2018;12;4;15;23;36;;;;;;;;;;;;1;;;;3.91;0;;;
HAR02;2018;12;4;15;23;37;;;;;;;;;;;;1;;;;3.92;0;;;
HAR02;2018;12;4;15;24;0;-37.854167;77.523967;1.4;21;3.92;22.5;;;;;;;;3751250S;07731438E;;0;;;
HAR02;2018;12;4;15;29;3;;;;;;;;;;;;1;;;;3.92;0;;;
HAR02;2018;12;4;15;29;4;;;;;;;;;;;;1;;;;3.91;0;;;
HAR02;2018;12;4;15;33;58;;;;;;;;;;;;1;;;;3.92;0;;;
HAR02;2018;12;4;15;33;59;;;;;;;;;;;;1;;;;3.91;0;;;
HAR02;2018;12;4;15;38;54;;;;;;;;;;;;1;;;;3.92;0;;;
HAR02;2018;12;4;15;38;55;;;;;;;;;;;;1;;;;3.91;0;;;
HAR02;2018;12;4;15;39;0;-37.854300;77.523767;0.5;24;3.91;23.5;;;;;;;;3751258S;07731426E;;0;;;
HAR02;2018;12;4;15;39;2;;;;;;;;;;;;1;;;;3.91;0;;;
HAR02;2018;12;4;15;39;3;;;;;;;;;;;;1;;;;3.91;0;;;
HAR02;2018;12;4;15;39;4;;;;;;;;;;;;1;;;;3.91;0;;;
HAR02;2018;12;4;15;44;34;;;;;;;;;;;;1;;;;3.91;0;;;
HAR02;2018;12;4;15;44;35;;;;;;;;;;;;1;;;;3.91;0;;;
HAR02;2018;12;4;15;49;28;;;;;;;;;;;;1;;;;3.91;0;;;
HAR02;2018;12;4;15;49;29;;;;;;;;;;;;1;;;;3.91;0;;;
HAR02;2018;12;4;15;54;24;;;;;;;;;;;;1;;;;3.91;0;;;
HAR02;2018;12;4;15;54;25;;;;;;;;;;;;1;;;;3.91;0;;;
HAR02;2018;12;4;15;54;32;;;;;;;;;;;;1;;;;3.91;0;;;
HAR02;2018;12;4;15;54;33;;;;;;;;;;;;1;;;;3.91;0;;;
HAR02;2018;12;4;15;54;34;;;;;;;;;;;;1;;;;3.91;0;;;
HAR02;2018;12;4;15;55;0;-37.854350;77.523933;0.6;23;3.91;23.5;;;;;;;;3751261S;07731436E;;0;;;
HAR02;2018;12;4;16;0;1;;;;;;;;;;;;1;;;;3.91;0;;;
HAR02;2018;12;4;16;0;2;;;;;;;;;;;;1;;;;3.91;0;;;
HAR02;2018;12;4;16;4;56;;;;;;;;;;;;1;;;;3.91;0;;;
HAR02;2018;12;4;16;4;57;;;;;;;;;;;;1;;;;3.91;0;;;
HAR02;2018;12;4;16;9;52;;;;;;;;;;;;1;;;;3.91;0;;;
HAR02;2018;12;4;16;9;53;;;;;;;;;;;;1;;;;3.91;0;;;
HAR02;2018;12;4;16;10;0;;;;;;;;;;;;1;;;;3.91;0;;;
HAR02;2018;12;4;16;10;0;-37.854383;77.523817;1.1;17;3.91;24;;;;;;;;3751263S;07731429E;;0;;;
HAR02;2018;12;4;16;10;1;;;;;;;;;;;;1;;;;3.91;0;;;
HAR02;2018;12;4;16;10;2;;;;;;;;;;;;1;;;;3.91;0;;;
HAR02;2018;12;4;16;15;24;;;;;;;;;;;;1;;;;3.91;0;;;
HAR02;2018;12;4;16;15;25;;;;;;;;;;;;1;;;;3.91;0;;;
HAR02;2018;12;4;16;20;19;;;;;;;;;;;;1;;;;3.91;0;;;
HAR02;2018;12;4;16;20;20;;;;;;;;;;;;1;;;;3.91;0;;;
HAR02;2018;12;4;16;25;0;-37.854333;77.523750;0.2;12;3.91;24;;;;;;;;3751260S;07731425E;;0;;;
HAR02;2018;12;4;16;25;15;;;;;;;;;;;;1;;;;3.91;0;;;
HAR02;2018;12;4;16;25;16;;;;;;;;;;;;1;;;;3.91;0;;;
HAR02;2018;12;4;16;25;23;;;;;;;;;;;;1;;;;3.91;0;;;
HAR02;2018;12;4;16;25;24;;;;;;;;;;;;1;;;;3.91;0;;;
HAR02;2018;12;4;16;25;25;;;;;;;;;;;;1;;;;3.91;0;;;
HAR02;2018;12;4;16;30;43;;;;;;;;;;;;1;;;;3.91;0;;;
HAR02;2018;12;4;16;30;44;;;;;;;;;;;;1;;;;3.91;0;;;
HAR02;2018;12;4;16;35;37;;;;;;;;;;;;1;;;;3.91;0;;;
HAR02;2018;12;4;16;35;38;;;;;;;;;;;;1;;;;3.91;0;;;
HAR02;2018;12;4;16;40;33;;;;;;;;;;;;1;;;;3.91;0;;;
HAR02;2018;12;4;16;40;34;;;;;;;;;;;;1;;;;3.91;0;;;
HAR02;2018;12;4;16;40;41;;;;;;;;;;;;1;;;;3.91;0;;;
HAR02;2018;12;4;16;40;42;;;;;;;;;;;;1;;;;3.91;0;;;
HAR02;2018;12;4;16;40;43;;;;;;;;;;;;1;;;;3.91;0;;;
HAR02;2018;12;4;16;41;0;-37.854300;77.523883;0.1;41;3.91;24;;;;;;;;3751258S;07731433E;;0;;;
HAR02;2018;12;4;16;46;29;;;;;;;;;;;;1;;;;3.91;0;;;
HAR02;2018;12;4;16;46;30;;;;;;;;;;;;1;;;;3.91;0;;;
HAR02;2018;12;4;16;51;24;;;;;;;;;;;;1;;;;3.91;0;;;
HAR02;2018;12;4;16;51;25;;;;;;;;;;;;1;;;;3.91;0;;;
HAR02;2018;12;4;16;56;0;-37.854300;77.523917;0.1;14;3.91;23.5;;;;;;;;3751258S;07731435E;;0;;;
HAR02;2018;12;4;16;56;20;;;;;;;;;;;;1;;;;3.91;0;;;
HAR02;2018;12;4;16;56;21;;;;;;;;;;;;1;;;;3.91;0;;;
HAR02;2018;12;4;16;56;28;;;;;;;;;;;;1;;;;3.91;0;;;
HAR02;2018;12;4;16;56;29;;;;;;;;;;;;1;;;;3.91;0;;;
HAR02;2018;12;4;16;56;30;;;;;;;;;;;;1;;;;3.91;0;;;
HAR02;2018;12;4;17;1;50;;;;;;;;;;;;1;;;;3.91;0;;;
HAR02;2018;12;4;17;1;51;;;;;;;;;;;;1;;;;3.91;0;;;
HAR02;2018;12;4;17;6;44;;;;;;;;;;;;1;;;;3.91;0;;;
HAR02;2018;12;4;17;6;45;;;;;;;;;;;;1;;;;3.91;0;;;
HAR02;2018;12;4;17;11;40;;;;;;;;;;;;1;;;;3.91;0;;;
HAR02;2018;12;4;17;11;41;;;;;;;;;;;;1;;;;3.91;0;;;
HAR02;2018;12;4;17;11;48;;;;;;;;;;;;1;;;;3.91;0;;;
HAR02;2018;12;4;17;11;49;;;;;;;;;;;;1;;;;3.91;0;;;
HAR02;2018;12;4;17;11;50;;;;;;;;;;;;1;;;;3.91;0;;;
HAR02;2018;12;4;17;12;0;-37.854333;77.523883;2.6;6;3.91;24;;;;;;;;3751260S;07731433E;;0;;;
HAR02;2018;12;4;17;17;0;;;;;;;;;;;;1;;;;3.91;0;;;
HAR02;2018;12;4;17;17;1;;;;;;;;;;;;1;;;;3.91;0;;;
HAR02;2018;12;4;17;21;55;;;;;;;;;;;;1;;;;3.91;0;;;
HAR02;2018;12;4;17;21;56;;;;;;;;;;;;1;;;;3.91;0;;;
HAR02;2018;12;4;17;26;51;;;;;;;;;;;;1;;;;3.91;0;;;
HAR02;2018;12;4;17;26;52;;;;;;;;;;;;1;;;;3.91;0;;;
HAR02;2018;12;4;17;26;59;;;;;;;;;;;;1;;;;3.91;0;;;
HAR02;2018;12;4;17;27;0;-37.854383;77.523867;0.6;19;3.91;24;;;;;;;;3751263S;07731432E;;0;;;
HAR02;2018;12;4;17;27;0;;;;;;;;;;;;1;;;;3.91;0;;;
HAR02;2018;12;4;17;27;1;;;;;;;;;;;;1;;;;3.91;0;;;
HAR02;2018;12;4;17;32;27;;;;;;;;;;;;1;;;;3.91;0;;;
HAR02;2018;12;4;17;32;28;;;;;;;;;;;;1;;;;3.91;0;;;
HAR02;2018;12;4;17;37;21;;;;;;;;;;;;1;;;;3.91;0;;;
HAR02;2018;12;4;17;37;22;;;;;;;;;;;;1;;;;3.91;0;;;
HAR02;2018;12;4;17;42;0;-37.854767;77.523917;0.2;18;3.91;25.5;;;;;;;;3751286S;07731435E;;0;;;
HAR02;2018;12;4;17;42;17;;;;;;;;;;;;1;;;;3.91;0;;;
HAR02;2018;12;4;17;42;18;;;;;;;;;;;;1;;;;3.91;0;;;
HAR02;2018;12;4;17;42;25;;;;;;;;;;;;1;;;;3.91;0;;;
HAR02;2018;12;4;17;42;26;;;;;;;;;;;;1;;;;3.91;0;;;
HAR02;2018;12;4;17;42;27;;;;;;;;;;;;1;;;;3.91;0;;;
HAR02;2018;12;4;17;47;49;;;;;;;;;;;;1;;;;3.91;0;;;
HAR02;2018;12;4;17;47;50;;;;;;;;;;;;1;;;;3.91;0;;;
HAR02;2018;12;4;17;52;44;;;;;;;;;;;;1;;;;3.91;0;;;
HAR02;2018;12;4;17;52;45;;;;;;;;;;;;1;;;;3.91;0;;;
HAR02;2018;12;4;17;57;40;;;;;;;;;;;;1;;;;3.91;0;;;
HAR02;2018;12;4;17;57;41;;;;;;;;;;;;1;;;;3.91;0;;;
HAR02;2018;12;4;17;57;48;;;;;;;;;;;;1;;;;3.91;0;;;
HAR02;2018;12;4;17;57;49;;;;;;;;;;;;1;;;;3.91;0;;;
HAR02;2018;12;4;17;57;50;;;;;;;;;;;;1;;;;3.91;0;;;
HAR02;2018;12;4;17;58;0;-37.854517;77.523950;0.3;17;3.91;26.5;;;;;;;;3751271S;07731437E;;0;;;
HAR02;2018;12;4;18;3;13;;;;;;;;;;;;1;;;;3.91;0;;;
HAR02;2018;12;4;18;3;14;;;;;;;;;;;;1;;;;3.91;0;;;
HAR02;2018;12;4;18;8;7;;;;;;;;;;;;1;;;;3.91;0;;;
HAR02;2018;12;4;18;8;8;;;;;;;;;;;;1;;;;3.91;0;;;
HAR02;2018;12;4;18;13;0;-37.854433;77.524083;0.1;13;3.91;26.5;;;;;;;;3751266S;07731445E;;0;;;
HAR02;2018;12;4;18;13;3;;;;;;;;;;;;1;;;;3.91;0;;;
HAR02;2018;12;4;18;13;4;;;;;;;;;;;;1;;;;3.91;0;;;
HAR02;2018;12;4;18;13;11;;;;;;;;;;;;1;;;;3.91;0;;;
HAR02;2018;12;4;18;13;12;;;;;;;;;;;;1;;;;3.91;0;;;
HAR02;2018;12;4;18;13;13;;;;;;;;;;;;1;;;;3.91;0;;;
HAR02;2018;12;4;18;18;31;;;;;;;;;;;;1;;;;3.91;0;;;
HAR02;2018;12;4;18;18;32;;;;;;;;;;;;1;;;;3.91;0;;;
HAR02;2018;12;4;18;23;26;;;;;;;;;;;;1;;;;3.91;0;;;
HAR02;2018;12;4;18;23;27;;;;;;;;;;;;1;;;;3.91;0;;;
HAR02;2018;12;4;18;28;0;-37.854350;77.524050;0.3;19;3.91;26.5;;;;;;;;3751261S;07731443E;;0;;;
HAR02;2018;12;4;18;28;22;;;;;;;;;;;;1;;;;3.91;0;;;
HAR02;2018;12;4;18;28;23;;;;;;;;;;;;1;;;;3.91;0;;;
HAR02;2018;12;4;18;28;30;;;;;;;;;;;;1;;;;3.91;0;;;
HAR02;2018;12;4;18;28;31;;;;;;;;;;;;1;;;;3.91;0;;;
HAR02;2018;12;4;18;28;32;;;;;;;;;;;;1;;;;3.91;0;;;
HAR02;2018;12;4;18;33;57;;;;;;;;;;;;1;;;;3.91;0;;;
HAR02;2018;12;4;18;33;58;;;;;;;;;;;;1;;;;3.9;0;;;
HAR02;2018;12;4;18;38;51;;;;;;;;;;;;1;;;;3.91;0;;;
HAR02;2018;12;4;18;38;52;;;;;;;;;;;;1;;;;3.91;0;;;
HAR02;2018;12;4;18;43;47;;;;;;;;;;;;1;;;;3.91;0;;;
HAR02;2018;12;4;18;43;48;;;;;;;;;;;;1;;;;3.91;0;;;
HAR02;2018;12;4;18;43;55;;;;;;;;;;;;1;;;;3.91;0;;;
HAR02;2018;12;4;18;43;56;;;;;;;;;;;;1;;;;3.9;0;;;
HAR02;2018;12;4;18;43;57;;;;;;;;;;;;1;;;;3.9;0;;;
HAR02;2018;12;4;18;45;0;-37.854633;77.523783;0.5;71;3.9;27;;;;;;;;3751278S;07731427E;;0;;;
HAR02;2018;12;4;18;50;14;;;;;;;;;;;;1;;;;3.9;0;;;
HAR02;2018;12;4;18;50;15;;;;;;;;;;;;1;;;;3.9;0;;;
HAR02;2018;12;4;18;55;8;;;;;;;;;;;;1;;;;3.9;0;;;
HAR02;2018;12;4;18;55;9;;;;;;;;;;;;1;;;;3.9;0;;;
HAR02;2018;12;4;19;0;0;-37.854300;77.523850;1.1;20;3.9;26.5;;;;;;;;3751258S;07731431E;;0;;;
HAR02;2018;12;4;19;0;4;;;;;;;;;;;;1;;;;3.9;0;;;
HAR02;2018;12;4;19;0;5;;;;;;;;;;;;1;;;;3.9;0;;;
HAR02;2018;12;4;19;0;12;;;;;;;;;;;;1;;;;3.9;0;;;
HAR02;2018;12;4;19;0;13;;;;;;;;;;;;1;;;;3.9;0;;;
HAR02;2018;12;4;19;0;14;;;;;;;;;;;;1;;;;3.9;0;;;
HAR02;2018;12;4;19;5;39;;;;;;;;;;;;1;;;;3.9;0;;;
HAR02;2018;12;4;19;5;40;;;;;;;;;;;;1;;;;3.9;0;;;
HAR02;2018;12;4;19;10;34;;;;;;;;;;;;1;;;;3.9;0;;;
HAR02;2018;12;4;19;10;35;;;;;;;;;;;;1;;;;3.9;0;;;
HAR02;2018;12;4;19;15;30;;;;;;;;;;;;1;;;;3.9;0;;;
HAR02;2018;12;4;19;15;31;;;;;;;;;;;;1;;;;3.9;0;;;
HAR02;2018;12;4;19;15;38;;;;;;;;;;;;1;;;;3.9;0;;;
HAR02;2018;12;4;19;15;39;;;;;;;;;;;;1;;;;3.9;0;;;
HAR02;2018;12;4;19;15;40;;;;;;;;;;;;1;;;;3.9;0;;;
HAR02;2018;12;4;19;16;0;-37.854317;77.523817;0.8;34;3.9;26;;;;;;;;3751259S;07731429E;;0;;;
HAR02;2018;12;4;19;21;20;;;;;;;;;;;;1;;;;3.9;0;;;
HAR02;2018;12;4;19;21;21;;;;;;;;;;;;1;;;;3.9;0;;;
HAR02;2018;12;4;19;26;14;;;;;;;;;;;;1;;;;3.9;0;;;
HAR02;2018;12;4;19;26;15;;;;;;;;;;;;1;;;;3.9;0;;;
HAR02;2018;12;4;19;31;0;-37.854350;77.523750;0.6;17;3.9;25.5;;;;;;;;3751261S;07731425E;;0;;;
HAR02;2018;12;4;19;31;10;;;;;;;;;;;;1;;;;3.9;0;;;
HAR02;2018;12;4;19;31;11;;;;;;;;;;;;1;;;;3.9;0;;;
HAR02;2018;12;4;19;31;18;;;;;;;;;;;;1;;;;3.9;0;;;
HAR02;2018;12;4;19;31;19;;;;;;;;;;;;1;;;;3.9;0;;;
HAR02;2018;12;4;19;31;20;;;;;;;;;;;;1;;;;3.9;0;;;
HAR02;2018;12;4;19;36;42;;;;;;;;;;;;1;;;;3.9;0;;;
HAR02;2018;12;4;19;36;43;;;;;;;;;;;;1;;;;3.9;0;;;
HAR02;2018;12;4;19;41;37;;;;;;;;;;;;1;;;;3.9;0;;;
HAR02;2018;12;4;19;41;38;;;;;;;;;;;;1;;;;3.9;0;;;
HAR02;2018;12;4;19;46;33;;;;;;;;;;;;1;;;;3.9;0;;;
HAR02;2018;12;4;19;46;34;;;;;;;;;;;;1;;;;3.9;0;;;
HAR02;2018;12;4;19;46;41;;;;;;;;;;;;1;;;;3.9;0;;;
HAR02;2018;12;4;19;46;42;;;;;;;;;;;;1;;;;3.9;0;;;
HAR02;2018;12;4;19;46;43;;;;;;;;;;;;1;;;;3.9;0;;;
HAR02;2018;12;4;19;47;0;-37.854333;77.523767;0.3;18;3.9;26;;;;;;;;3751260S;07731426E;;0;;;
HAR02;2018;12;4;19;52;8;;;;;;;;;;;;1;;;;3.9;0;;;
HAR02;2018;12;4;19;52;9;;;;;;;;;;;;1;;;;3.89;0;;;
HAR02;2018;12;4;19;57;2;;;;;;;;;;;;1;;;;3.9;0;;;
HAR02;2018;12;4;19;57;3;;;;;;;;;;;;1;;;;3.9;0;;;
HAR02;2018;12;4;20;1;58;;;;;;;;;;;;1;;;;3.9;0;;;
HAR02;2018;12;4;20;1;59;;;;;;;;;;;;1;;;;3.9;0;;;
HAR02;2018;12;4;20;2;0;-37.854250;77.523950;0.1;35;3.89;25.5;;;;;;;;3751255S;07731437E;;0;;;
HAR02;2018;12;4;20;2;6;;;;;;;;;;;;1;;;;3.9;0;;;
HAR02;2018;12;4;20;2;7;;;;;;;;;;;;1;;;;3.9;0;;;
HAR02;2018;12;4;20;2;8;;;;;;;;;;;;1;;;;3.89;0;;;
HAR02;2018;12;4;20;7;47;;;;;;;;;;;;1;;;;3.9;0;;;
HAR02;2018;12;4;20;7;48;;;;;;;;;;;;1;;;;3.89;0;;;
HAR02;2018;12;4;20;12;41;;;;;;;;;;;;1;;;;3.9;0;;;
HAR02;2018;12;4;20;12;42;;;;;;;;;;;;1;;;;3.89;0;;;
HAR02;2018;12;4;20;17;37;;;;;;;;;;;;1;;;;3.89;0;;;
HAR02;2018;12;4;20;17;38;;;;;;;;;;;;1;;;;3.89;0;;;
HAR02;2018;12;4;20;17;45;;;;;;;;;;;;1;;;;3.89;0;;;
HAR02;2018;12;4;20;17;46;;;;;;;;;;;;1;;;;3.89;0;;;
HAR02;2018;12;4;20;17;47;;;;;;;;;;;;1;;;;3.89;0;;;
HAR02;2018;12;4;20;18;0;-37.854533;77.523817;0.0;46;3.89;24.5;;;;;;;;3751272S;07731429E;;0;;;
HAR02;2018;12;4;20;23;40;;;;;;;;;;;;1;;;;3.89;0;;;
HAR02;2018;12;4;20;23;41;;;;;;;;;;;;1;;;;3.89;0;;;
HAR02;2018;12;4;20;28;34;;;;;;;;;;;;1;;;;3.89;0;;;
HAR02;2018;12;4;20;28;35;;;;;;;;;;;;1;;;;3.89;0;;;
HAR02;2018;12;4;20;33;30;;;;;;;;;;;;1;;;;3.89;0;;;
HAR02;2018;12;4;20;33;31;;;;;;;;;;;;1;;;;3.89;0;;;
HAR02;2018;12;4;20;33;38;;;;;;;;;;;;1;;;;3.89;0;;;
HAR02;2018;12;4;20;33;39;;;;;;;;;;;;1;;;;3.89;0;;;
HAR02;2018;12;4;20;33;40;;;;;;;;;;;;1;;;;3.89;0;;;
HAR02;2018;12;4;20;34;0;-37.854500;77.523833;0.2;39;3.89;25;;;;;;;;3751270S;07731430E;;0;;;
HAR02;2018;12;4;20;39;25;;;;;;;;;;;;1;;;;3.89;0;;;
HAR02;2018;12;4;20;39;26;;;;;;;;;;;;1;;;;3.89;0;;;
HAR02;2018;12;4;20;44;19;;;;;;;;;;;;1;;;;3.89;0;;;
HAR02;2018;12;4;20;44;20;;;;;;;;;;;;1;;;;3.89;0;;;
HAR02;2018;12;4;20;49;15;;;;;;;;;;;;1;;;;3.89;0;;;
HAR02;2018;12;4;20;49;16;;;;;;;;;;;;1;;;;3.89;0;;;
HAR02;2018;12;4;20;49;23;;;;;;;;;;;;1;;;;3.89;0;;;
HAR02;2018;12;4;20;49;24;;;;;;;;;;;;1;;;;3.89;0;;;
HAR02;2018;12;4;20;49;25;;;;;;;;;;;;1;;;;3.89;0;;;
HAR02;2018;12;4;20;50;0;-37.854417;77.523833;1.2;57;3.89;25;;;;;;;;3751265S;07731430E;;0;;;
HAR02;2018;12;4;20;55;29;;;;;;;;;;;;1;;;;3.89;0;;;
HAR02;2018;12;4;20;55;30;;;;;;;;;;;;1;;;;3.88;0;;;
HAR02;2018;12;4;21;0;23;;;;;;;;;;;;1;;;;3.89;0;;;
HAR02;2018;12;4;21;0;24;;;;;;;;;;;;1;;;;3.88;0;;;
HAR02;2018;12;4;21;5;0;-37.854583;77.523817;0.3;10;3.89;25;;;;;;;;3751275S;07731429E;;0;;;
HAR02;2018;12;4;21;5;19;;;;;;;;;;;;1;;;;3.89;0;;;
HAR02;2018;12;4;21;5;20;;;;;;;;;;;;1;;;;3.89;0;;;
HAR02;2018;12;4;21;5;27;;;;;;;;;;;;1;;;;3.89;0;;;
HAR02;2018;12;4;21;5;28;;;;;;;;;;;;1;;;;3.88;0;;;
HAR02;2018;12;4;21;5;29;;;;;;;;;;;;1;;;;3.89;0;;;
HAR02;2018;12;4;21;10;44;;;;;;;;;;;;1;;;;3.89;0;;;
HAR02;2018;12;4;21;10;45;;;;;;;;;;;;1;;;;3.88;0;;;
HAR02;2018;12;4;21;15;39;;;;;;;;;;;;1;;;;3.89;0;;;
HAR02;2018;12;4;21;15;40;;;;;;;;;;;;1;;;;3.89;0;;;
HAR02;2018;12;4;21;20;35;;;;;;;;;;;;1;;;;3.89;0;;;
HAR02;2018;12;4;21;20;36;;;;;;;;;;;;1;;;;3.88;0;;;
HAR02;2018;12;4;21;20;43;;;;;;;;;;;;1;;;;3.89;0;;;
HAR02;2018;12;4;21;20;44;;;;;;;;;;;;1;;;;3.88;0;;;
HAR02;2018;12;4;21;20;45;;;;;;;;;;;;1;;;;3.88;0;;;
HAR02;2018;12;4;21;21;0;-37.854617;77.523733;0.1;23;3.88;25;;;;;;;;3751277S;07731424E;;0;;;
HAR02;2018;12;4;21;26;15;;;;;;;;;;;;1;;;;3.88;0;;;
HAR02;2018;12;4;21;26;16;;;;;;;;;;;;1;;;;3.88;0;;;
HAR02;2018;12;4;21;31;8;;;;;;;;;;;;1;;;;3.88;0;;;
HAR02;2018;12;4;21;31;9;;;;;;;;;;;;1;;;;3.88;0;;;
HAR02;2018;12;4;21;36;0;-37.854450;77.523833;0.1;11;3.88;25;;;;;;;;3751267S;07731430E;;0;;;
HAR02;2018;12;4;21;36;4;;;;;;;;;;;;1;;;;3.88;0;;;
HAR02;2018;12;4;21;36;5;;;;;;;;;;;;1;;;;3.88;0;;;
HAR02;2018;12;4;21;36;12;;;;;;;;;;;;1;;;;3.88;0;;;
HAR02;2018;12;4;21;36;13;;;;;;;;;;;;1;;;;3.88;0;;;
HAR02;2018;12;4;21;36;14;;;;;;;;;;;;1;;;;3.88;0;;;
HAR02;2018;12;4;21;41;30;;;;;;;;;;;;1;;;;3.88;0;;;
HAR02;2018;12;4;21;41;31;;;;;;;;;;;;1;;;;3.88;0;;;
HAR02;2018;12;4;21;46;25;;;;;;;;;;;;1;;;;3.88;0;;;
HAR02;2018;12;4;21;46;26;;;;;;;;;;;;1;;;;3.88;0;;;
HAR02;2018;12;4;21;51;0;-37.854250;77.523850;0.3;13;3.88;24.5;;;;;;;;3751255S;07731431E;;0;;;
HAR02;2018;12;4;21;51;21;;;;;;;;;;;;1;;;;3.88;0;;;
HAR02;2018;12;4;21;51;22;;;;;;;;;;;;1;;;;3.88;0;;;
HAR02;2018;12;4;21;51;29;;;;;;;;;;;;1;;;;3.88;0;;;
HAR02;2018;12;4;21;51;30;;;;;;;;;;;;1;;;;3.88;0;;;
HAR02;2018;12;4;21;51;31;;;;;;;;;;;;1;;;;3.88;0;;;
HAR02;2018;12;4;21;56;50;;;;;;;;;;;;1;;;;3.88;0;;;
HAR02;2018;12;4;21;56;51;;;;;;;;;;;;1;;;;3.88;0;;;
HAR02;2018;12;4;22;1;44;;;;;;;;;;;;1;;;;3.88;0;;;
HAR02;2018;12;4;22;1;45;;;;;;;;;;;;1;;;;3.88;0;;;
HAR02;2018;12;4;22;6;40;;;;;;;;;;;;1;;;;3.88;0;;;
HAR02;2018;12;4;22;6;41;;;;;;;;;;;;1;;;;3.88;0;;;
HAR02;2018;12;4;22;6;48;;;;;;;;;;;;1;;;;3.88;0;;;
HAR02;2018;12;4;22;6;49;;;;;;;;;;;;1;;;;3.88;0;;;
HAR02;2018;12;4;22;6;50;;;;;;;;;;;;1;;;;3.88;0;;;
HAR02;2018;12;4;22;7;0;-37.854583;77.524000;0.2;13;3.88;22.5;;;;;;;;3751275S;07731440E;;0;;;
HAR02;2018;12;4;22;12;8;;;;;;;;;;;;1;;;;3.88;0;;;
HAR02;2018;12;4;22;12;9;;;;;;;;;;;;1;;;;3.88;0;;;
HAR02;2018;12;4;22;17;3;;;;;;;;;;;;1;;;;3.88;0;;;
HAR02;2018;12;4;22;17;4;;;;;;;;;;;;1;;;;3.88;0;;;
HAR02;2018;12;4;22;21;59;;;;;;;;;;;;1;;;;3.88;0;;;
HAR02;2018;12;4;22;22;0;-37.854433;77.523800;0.6;12;3.88;21.5;;;;;;;;3751266S;07731428E;;0;;;
HAR02;2018;12;4;22;22;0;;;;;;;;;;;;1;;;;3.88;0;;;
HAR02;2018;12;4;22;22;7;;;;;;;;;;;;1;;;;3.88;0;;;
HAR02;2018;12;4;22;22;8;;;;;;;;;;;;1;;;;3.88;0;;;
HAR02;2018;12;4;22;22;9;;;;;;;;;;;;1;;;;3.88;0;;;
HAR02;2018;12;4;22;27;27;;;;;;;;;;;;1;;;;3.88;0;;;
HAR02;2018;12;4;22;27;28;;;;;;;;;;;;1;;;;3.88;0;;;
HAR02;2018;12;4;22;32;22;;;;;;;;;;;;1;;;;3.88;0;;;
HAR02;2018;12;4;22;32;23;;;;;;;;;;;;1;;;;3.88;0;;;
HAR02;2018;12;4;22;37;0;-37.854517;77.523967;0.8;13;3.88;22.5;;;;;;;;3751271S;07731438E;;0;;;
HAR02;2018;12;4;22;37;18;;;;;;;;;;;;1;;;;3.88;0;;;
HAR02;2018;12;4;22;37;19;;;;;;;;;;;;1;;;;3.88;0;;;
HAR02;2018;12;4;22;37;26;;;;;;;;;;;;1;;;;3.88;0;;;
HAR02;2018;12;4;22;37;27;;;;;;;;;;;;1;;;;3.88;0;;;
HAR02;2018;12;4;22;37;28;;;;;;;;;;;;1;;;;3.88;0;;;
HAR02;2018;12;4;22;42;48;;;;;;;;;;;;1;;;;3.88;0;;;
HAR02;2018;12;4;22;42;49;;;;;;;;;;;;1;;;;3.88;0;;;
HAR02;2018;12;4;22;47;42;;;;;;;;;;;;1;;;;3.88;0;;;
HAR02;2018;12;4;22;47;43;;;;;;;;;;;;1;;;;3.88;0;;;
HAR02;2018;12;4;22;52;38;;;;;;;;;;;;1;;;;3.88;0;;;
HAR02;2018;12;4;22;52;39;;;;;;;;;;;;1;;;;3.88;0;;;
HAR02;2018;12;4;22;52;46;;;;;;;;;;;;1;;;;3.88;0;;;
HAR02;2018;12;4;22;52;47;;;;;;;;;;;;1;;;;3.88;0;;;
HAR02;2018;12;4;22;52;48;;;;;;;;;;;;1;;;;3.88;0;;;
HAR02;2018;12;4;22;53;0;-37.854633;77.523617;0.7;9;3.88;21;;;;;;;;3751278S;07731417E;;0;;;
HAR02;2018;12;4;22;58;2;;;;;;;;;;;;1;;;;3.88;0;;;
HAR02;2018;12;4;22;58;3;;;;;;;;;;;;1;;;;3.88;0;;;
HAR02;2018;12;4;23;2;57;;;;;;;;;;;;1;;;;3.88;0;;;
HAR02;2018;12;4;23;2;58;;;;;;;;;;;;1;;;;3.88;0;;;
HAR02;2018;12;4;23;7;53;;;;;;;;;;;;1;;;;3.88;0;;;
HAR02;2018;12;4;23;7;54;;;;;;;;;;;;1;;;;3.88;0;;;
HAR02;2018;12;4;23;8;0;-37.854383;77.523933;0.4;15;3.88;21;;;;;;;;3751263S;07731436E;;0;;;
HAR02;2018;12;4;23;8;1;;;;;;;;;;;;1;;;;3.88;0;;;
HAR02;2018;12;4;23;8;2;;;;;;;;;;;;1;;;;3.88;0;;;
HAR02;2018;12;4;23;8;3;;;;;;;;;;;;1;;;;3.88;0;;;
HAR02;2018;12;4;23;13;25;;;;;;;;;;;;1;;;;3.88;0;;;
HAR02;2018;12;4;23;13;26;;;;;;;;;;;;1;;;;3.88;0;;;
HAR02;2018;12;4;23;18;19;;;;;;;;;;;;1;;;;3.88;0;;;
HAR02;2018;12;4;23;18;20;;;;;;;;;;;;1;;;;3.88;0;;;
HAR02;2018;12;4;23;23;0;-37.854050;77.523983;0.1;12;3.88;22;;;;;;;;3751243S;07731439E;;0;;;
HAR02;2018;12;4;23;23;15;;;;;;;;;;;;1;;;;3.88;0;;;
HAR02;2018;12;4;23;23;16;;;;;;;;;;;;1;;;;3.88;0;;;
HAR02;2018;12;4;23;23;23;;;;;;;;;;;;1;;;;3.88;0;;;
HAR02;2018;12;4;23;23;24;;;;;;;;;;;;1;;;;3.88;0;;;
HAR02;2018;12;4;23;23;25;;;;;;;;;;;;1;;;;3.88;0;;;
HAR02;2018;12;4;23;28;42;;;;;;;;;;;;1;;;;3.88;0;;;
HAR02;2018;12;4;23;28;44;;;;;;;;;;;;1;;;;3.88;0;;;
HAR02;2018;12;4;23;33;38;;;;;;;;;;;;1;;;;3.88;0;;;
HAR02;2018;12;4;23;33;39;;;;;;;;;;;;1;;;;3.88;0;;;
HAR02;2018;12;4;23;38;33;;;;;;;;;;;;1;;;;3.88;0;;;
HAR02;2018;12;4;23;38;34;;;;;;;;;;;;1;;;;3.88;0;;;
HAR02;2018;12;4;23;38;42;;;;;;;;;;;;1;;;;3.88;0;;;
HAR02;2018;12;4;23;38;43;;;;;;;;;;;;1;;;;3.88;0;;;
HAR02;2018;12;4;23;39;0;-37.854600;77.524150;0.2;18;3.88;23;;;;;;;;3751276S;07731449E;;0;;;
HAR02;2018;12;4;23;44;6;;;;;;;;;;;;1;;;;3.88;0;;;
HAR02;2018;12;4;23;44;7;;;;;;;;;;;;1;;;;3.88;0;;;
HAR02;2018;12;4;23;49;0;;;;;;;;;;;;1;;;;3.88;0;;;
HAR02;2018;12;4;23;49;1;;;;;;;;;;;;1;;;;3.88;0;;;
HAR02;2018;12;4;23;54;4;;;;;;;;;;;;1;;;;3.88;0;;;
HAR02;2018;12;4;23;54;5;;;;;;;;;;;;1;;;;3.88;0;;;
HAR02;2018;12;4;23;54;6;;;;;;;;;;;;1;;;;3.88;0;;;
HAR02;2018;12;4;23;55;0;-37.853200;77.524350;3.3;64;3.88;23.5;;;;;;;;3751192S;07731461E;;0;;;
HAR02;2018;12;5;0;0;15;;;;;;;;;;;;1;;;;3.88;0;;;
HAR02;2018;12;5;0;0;16;;;;;;;;;;;;1;;;;3.88;0;;;
HAR02;2018;12;5;0;5;10;;;;;;;;;;;;1;;;;3.88;0;;;
HAR02;2018;12;5;0;5;11;;;;;;;;;;;;1;;;;3.88;0;;;
HAR02;2018;12;5;0;10;6;;;;;;;;;;;;1;;;;3.88;0;;;
HAR02;2018;12;5;0;10;7;;;;;;;;;;;;1;;;;3.88;0;;;
HAR02;2018;12;5;0;10;14;;;;;;;;;;;;1;;;;3.88;0;;;
HAR02;2018;12;5;0;10;15;;;;;;;;;;;;1;;;;3.88;0;;;
HAR02;2018;12;5;0;10;16;;;;;;;;;;;;1;;;;3.88;0;;;
HAR02;2018;12;5;0;11;0;-37.854233;77.524000;0.2;38;3.88;23.5;;;;;;;;3751254S;07731440E;;0;;;
HAR02;2018;12;5;0;16;0;;;;;;;;;;;;1;;;;3.88;0;;;
HAR02;2018;12;5;0;16;1;;;;;;;;;;;;1;;;;3.88;0;;;
HAR02;2018;12;5;0;20;54;;;;;;;;;;;;1;;;;3.88;0;;;
HAR02;2018;12;5;0;20;55;;;;;;;;;;;;1;;;;3.88;0;;;
HAR02;2018;12;5;0;25;50;;;;;;;;;;;;1;;;;3.88;0;;;
HAR02;2018;12;5;0;25;51;;;;;;;;;;;;1;;;;3.88;0;;;
HAR02;2018;12;5;0;25;58;;;;;;;;;;;;1;;;;3.88;0;;;
HAR02;2018;12;5;0;25;59;;;;;;;;;;;;1;;;;3.88;0;;;
HAR02;2018;12;5;0;26;0;;;;;;;;;;;;1;;;;3.88;0;;;
HAR02;2018;12;5;0;26;0;-37.854283;77.523767;0.1;7;3.88;24;;;;;;;;3751257S;07731426E;;0;;;
HAR02;2018;12;5;0;31;13;;;;;;;;;;;;1;;;;3.88;0;;;
HAR02;2018;12;5;0;31;14;;;;;;;;;;;;1;;;;3.88;0;;;
HAR02;2018;12;5;0;36;7;;;;;;;;;;;;1;;;;3.88;0;;;
HAR02;2018;12;5;0;36;8;;;;;;;;;;;;1;;;;3.88;0;;;
HAR02;2018;12;5;0;41;0;-37.854333;77.523833;0.3;12;3.88;23;;;;;;;;3751260S;07731430E;;0;;;
HAR02;2018;12;5;0;41;3;;;;;;;;;;;;1;;;;3.88;0;;;
HAR02;2018;12;5;0;41;4;;;;;;;;;;;;1;;;;3.88;0;;;
HAR02;2018;12;5;0;41;11;;;;;;;;;;;;1;;;;3.88;0;;;
HAR02;2018;12;5;0;41;12;;;;;;;;;;;;1;;;;3.88;0;;;
HAR02;2018;12;5;0;41;13;;;;;;;;;;;;1;;;;3.88;0;;;
HAR02;2018;12;5;0;46;31;;;;;;;;;;;;1;;;;3.88;0;;;
HAR02;2018;12;5;0;46;32;;;;;;;;;;;;1;;;;3.88;0;;;
HAR02;2018;12;5;0;51;25;;;;;;;;;;;;1;;;;3.88;0;;;
HAR02;2018;12;5;0;51;26;;;;;;;;;;;;1;;;;3.88;0;;;
HAR02;2018;12;5;0;56;0;-37.854200;77.523900;1.0;6;3.88;23;;;;;;;;3751252S;07731434E;;0;;;
HAR02;2018;12;5;0;56;21;;;;;;;;;;;;1;;;;3.88;0;;;
HAR02;2018;12;5;0;56;22;;;;;;;;;;;;1;;;;3.88;0;;;
HAR02;2018;12;5;0;56;29;;;;;;;;;;;;1;;;;3.88;0;;;
HAR02;2018;12;5;0;56;30;;;;;;;;;;;;1;;;;3.88;0;;;
HAR02;2018;12;5;0;56;31;;;;;;;;;;;;1;;;;3.88;0;;;
HAR02;2018;12;5;1;1;43;;;;;;;;;;;;1;;;;3.88;0;;;
HAR02;2018;12;5;1;1;44;;;;;;;;;;;;1;;;;3.88;0;;;
HAR02;2018;12;5;1;6;38;;;;;;;;;;;;1;;;;3.88;0;;;
HAR02;2018;12;5;1;6;39;;;;;;;;;;;;1;;;;3.88;0;;;
HAR02;2018;12;5;1;11;0;-37.854483;77.523817;0.7;6;3.88;22.5;;;;;;;;3751269S;07731429E;;0;;;
HAR02;2018;12;5;1;11;34;;;;;;;;;;;;1;;;;3.88;0;;;
HAR02;2018;12;5;1;11;35;;;;;;;;;;;;1;;;;3.88;0;;;
HAR02;2018;12;5;1;11;42;;;;;;;;;;;;1;;;;3.88;0;;;
HAR02;2018;12;5;1;11;43;;;;;;;;;;;;1;;;;3.88;0;;;
HAR02;2018;12;5;1;11;44;;;;;;;;;;;;1;;;;3.88;0;;;
HAR02;2018;12;5;1;16;56;;;;;;;;;;;;1;;;;3.88;0;;;
HAR02;2018;12;5;1;16;57;;;;;;;;;;;;1;;;;3.88;0;;;
HAR02;2018;12;5;1;21;50;;;;;;;;;;;;1;;;;3.88;0;;;
HAR02;2018;12;5;1;21;51;;;;;;;;;;;;1;;;;3.88;0;;;
HAR02;2018;12;5;1;26;46;;;;;;;;;;;;1;;;;3.88;0;;;
HAR02;2018;12;5;1;26;47;;;;;;;;;;;;1;;;;3.88;0;;;
HAR02;2018;12;5;1;26;54;;;;;;;;;;;;1;;;;3.88;0;;;
HAR02;2018;12;5;1;26;55;;;;;;;;;;;;1;;;;3.88;0;;;
HAR02;2018;12;5;1;26;56;;;;;;;;;;;;1;;;;3.88;0;;;
HAR02;2018;12;5;1;27;0;-37.854383;77.523900;0.4;7;3.88;23;;;;;;;;3751263S;07731434E;;0;;;
HAR02;2018;12;5;1;32;9;;;;;;;;;;;;1;;;;3.88;0;;;
HAR02;2018;12;5;1;32;10;;;;;;;;;;;;1;;;;3.88;0;;;
HAR02;2018;12;5;1;37;3;;;;;;;;;;;;1;;;;3.88;0;;;
HAR02;2018;12;5;1;37;4;;;;;;;;;;;;1;;;;3.88;0;;;
HAR02;2018;12;5;1;41;59;;;;;;;;;;;;1;;;;3.88;0;;;
HAR02;2018;12;5;1;42;0;;;;;;;;;;;;1;;;;3.88;0;;;
HAR02;2018;12;5;1;42;0;-37.854300;77.523950;0.6;6;3.88;24.5;;;;;;;;3751258S;07731437E;;0;;;
HAR02;2018;12;5;1;42;7;;;;;;;;;;;;1;;;;3.88;0;;;
HAR02;2018;12;5;1;42;8;;;;;;;;;;;;1;;;;3.88;0;;;
HAR02;2018;12;5;1;42;9;;;;;;;;;;;;1;;;;3.88;0;;;
HAR02;2018;12;5;1;47;20;;;;;;;;;;;;1;;;;3.88;0;;;
HAR02;2018;12;5;1;47;21;;;;;;;;;;;;1;;;;3.88;0;;;
HAR02;2018;12;5;1;52;15;;;;;;;;;;;;1;;;;3.88;0;;;
HAR02;2018;12;5;1;52;16;;;;;;;;;;;;1;;;;3.88;0;;;
HAR02;2018;12;5;1;57;0;-37.853083;77.526950;0.4;23;3.88;26;;;;;;;;3751185S;07731617E;;0;;;
HAR02;2018;12;5;1;57;11;;;;;;;;;;;;1;;;;3.88;0;;;
HAR02;2018;12;5;1;57;12;;;;;;;;;;;;1;;;;3.88;0;;;
HAR02;2018;12;5;1;57;19;;;;;;;;;;;;1;;;;3.88;0;;;
HAR02;2018;12;5;1;57;20;;;;;;;;;;;;1;;;;3.88;0;;;
HAR02;2018;12;5;1;57;21;;;;;;;;;;;;1;;;;3.88;0;;;
HAR02;2018;12;5;2;2;50;;;;;;;;;;;;1;;;;3.88;0;;;
HAR02;2018;12;5;2;2;51;;;;;;;;;;;;1;;;;3.87;0;;;
HAR02;2018;12;5;2;7;44;;;;;;;;;;;;1;;;;3.88;0;;;
HAR02;2018;12;5;2;7;45;;;;;;;;;;;;1;;;;3.87;0;;;
HAR02;2018;12;5;2;12;40;;;;;;;;;;;;1;;;;3.88;0;;;
HAR02;2018;12;5;2;12;41;;;;;;;;;;;;1;;;;3.87;0;;;
HAR02;2018;12;5;2;12;48;;;;;;;;;;;;1;;;;3.88;0;;;
HAR02;2018;12;5;2;12;49;;;;;;;;;;;;1;;;;3.87;0;;;
HAR02;2018;12;5;2;12;50;;;;;;;;;;;;1;;;;3.87;0;;;
HAR02;2018;12;5;2;13;0;-37.854133;77.524167;0.6;14;3.87;28;;;;;;;;3751248S;07731450E;;0;;;
HAR02;2018;12;5;2;18;8;;;;;;;;;;;;1;;;;3.87;0;;;
HAR02;2018;12;5;2;18;9;;;;;;;;;;;;1;;;;3.87;0;;;
HAR02;2018;12;5;2;23;3;;;;;;;;;;;;1;;;;3.87;0;;;
HAR02;2018;12;5;2;23;4;;;;;;;;;;;;1;;;;3.87;0;;;
HAR02;2018;12;5;2;27;59;;;;;;;;;;;;1;;;;3.87;0;;;
HAR02;2018;12;5;2;28;0;-37.854817;77.523917;0.2;40;3.87;29;;;;;;;;3751289S;07731435E;;0;;;
HAR02;2018;12;5;2;28;0;;;;;;;;;;;;1;;;;3.87;0;;;
HAR02;2018;12;5;2;28;7;;;;;;;;;;;;1;;;;3.87;0;;;
HAR02;2018;12;5;2;28;8;;;;;;;;;;;;1;;;;3.87;0;;;
HAR02;2018;12;5;2;28;9;;;;;;;;;;;;1;;;;3.87;0;;;
HAR02;2018;12;5;2;33;54;;;;;;;;;;;;1;;;;3.87;0;;;
HAR02;2018;12;5;2;33;55;;;;;;;;;;;;1;;;;3.87;0;;;
HAR02;2018;12;5;2;38;49;;;;;;;;;;;;1;;;;3.87;0;;;
HAR02;2018;12;5;2;38;50;;;;;;;;;;;;1;;;;3.87;0;;;
HAR02;2018;12;5;2;43;45;;;;;;;;;;;;1;;;;3.87;0;;;
HAR02;2018;12;5;2;43;46;;;;;;;;;;;;1;;;;3.87;0;;;
HAR02;2018;12;5;2;43;53;;;;;;;;;;;;1;;;;3.87;0;;;
HAR02;2018;12;5;2;43;54;;;;;;;;;;;;1;;;;3.87;0;;;
HAR02;2018;12;5;2;43;55;;;;;;;;;;;;1;;;;3.87;0;;;
HAR02;2018;12;5;2;44;0;-37.853250;77.524767;4.6;30;3.87;31;;;;;;;;3751195S;07731486E;;0;;;
HAR02;2018;12;5;2;49;31;;;;;;;;;;;;1;;;;3.87;0;;;
HAR02;2018;12;5;2;49;32;;;;;;;;;;;;1;;;;3.87;0;;;
HAR02;2018;12;5;2;54;25;;;;;;;;;;;;1;;;;3.87;0;;;
HAR02;2018;12;5;2;54;26;;;;;;;;;;;;1;;;;3.87;0;;;
HAR02;2018;12;5;2;59;21;;;;;;;;;;;;1;;;;3.87;0;;;
HAR02;2018;12;5;2;59;22;;;;;;;;;;;;1;;;;3.87;0;;;
HAR02;2018;12;5;2;59;29;;;;;;;;;;;;1;;;;3.87;0;;;
HAR02;2018;12;5;2;59;30;;;;;;;;;;;;1;;;;3.87;0;;;
HAR02;2018;12;5;2;59;31;;;;;;;;;;;;1;;;;3.87;0;;;
HAR02;2018;12;5;3;2;32;;;;;;;;;;1;;;;;;;0;;;
HAR02;2018;12;5;3;7;30;;;;;;;;;;;;1;;;;3.86;0;;;
HAR02;2018;12;5;3;7;31;;;;;;;;;;;;1;;;;3.86;0;;;
HAR02;2018;12;5;3;12;25;;;;;;;;;;;;1;;;;3.86;0;;;
HAR02;2018;12;5;3;12;26;;;;;;;;;;;;1;;;;3.86;0;;;
HAR02;2018;12;5;3;17;21;;;;;;;;;;;;1;;;;3.86;0;;;
HAR02;2018;12;5;3;17;22;;;;;;;;;;;;1;;;;3.86;0;;;
HAR02;2018;12;5;3;17;29;;;;;;;;;;;;1;;;;3.86;0;;;
HAR02;2018;12;5;3;17;31;;;;;;;;;;;;1;;;;3.86;0;;;
HAR02;2018;12;5;3;17;32;;;;;;;;;;;;1;;;;3.86;0;;;
HAR02;2018;12;5;3;19;0;-37.854317;77.523883;0.9;133;3.86;31.5;;;;;;;;3751259S;07731433E;;0;;;
HAR02;2018;12;5;3;35;0;-37.868633;77.501017;4.0;11;3.86;21.5;;;;;;;;3752118S;07730061E;;0;;;
HAR02;2018;12;5;3;50;0;-37.873300;77.542233;24.;19;3.87;18;;;;;;;;3752398S;07732534E;;0;;;
HAR02;2018;12;5;3;55;40;;;;;;;;;;;;1;;;;3.87;0;;;
HAR02;2018;12;5;3;55;41;;;;;;;;;;;;1;;;;3.87;0;;;
HAR02;2018;12;5;4;0;33;;;;;;;;;;;;1;;;;3.87;0;;;
HAR02;2018;12;5;4;0;34;;;;;;;;;;;;1;;;;3.87;0;;;
HAR02;2018;12;5;4;5;29;;;;;;;;;;;;1;;;;3.87;0;;;
HAR02;2018;12;5;4;5;30;;;;;;;;;;;;1;;;;3.87;0;;;
HAR02;2018;12;5;4;5;37;;;;;;;;;;;;1;;;;3.87;0;;;
HAR02;2018;12;5;4;5;40;;;;;;;;;;;;1;;;;3.87;0;;;
HAR02;2018;12;5;4;6;0;-37.854433;77.523900;18.;12;3.87;19.5;;;;;;;;3751266S;07731434E;;0;;;
HAR02;2018;12;5;4;11;2;;;;;;;;;;;;1;;;;3.87;0;;;
HAR02;2018;12;5;4;11;3;;;;;;;;;;;;1;;;;3.87;0;;;
HAR02;2018;12;5;4;21;0;-37.773667;77.493417;30.;19;3.88;19.5;;;;;;;;3746420S;07729605E;;0;;;
HAR02;2018;12;5;4;36;0;-37.730633;77.443100;23.;23;3.88;21.5;;;;;;;;3743838S;07726586E;;0;;;
HAR02;2018;12;5;4;52;0;-37.696450;77.387717;16.;38;3.88;21;;;;;;;;3741787S;07723263E;;0;;;
HAR02;2018;12;5;5;8;0;-37.682333;77.339083;0.5;23;3.88;21;;;;;;;;3740940S;07720345E;;0;;;
HAR02;2018;12;5;5;23;0;-37.682850;77.340917;0.3;17;3.88;24;;;;;;;;3740971S;07720455E;;0;;;
HAR02;2018;12;5;5;39;0;-37.682667;77.343267;0.2;41;3.88;26.5;;;;;;;;3740960S;07720596E;;0;;;
HAR02;2018;12;5;5;54;0;-37.669450;77.286617;12.;5;3.89;22;;;;;;;;3740167S;07717197E;;0;;;
HAR02;2018;12;5;6;9;0;-37.649467;77.217633;21.;5;3.9;22;;;;;;;;3738968S;07713058E;;0;;;
HAR02;2018;12;5;6;24;0;-37.634883;77.168783;18.;8;3.9;20.5;;;;;;;;3738093S;07710127E;;0;;;
HAR02;2018;12;5;6;40;0;-37.625500;77.142950;0.9;8;3.9;25.5;;;;;;;;3737530S;07708577E;;0;;;
HAR02;2018;12;5;6;55;0;-37.625550;77.143333;0.7;8;3.9;29.5;;;;;;;;3737533S;07708600E;;0;;;
HAR02;2018;12;5;7;11;0;-37.625817;77.143650;0.4;45;3.9;28.5;;;;;;;;3737549S;07708619E;;0;;;
HAR02;2018;12;5;7;26;0;-37.626417;77.143983;1.0;36;3.9;26.5;;;;;;;;3737585S;07708639E;;0;;;
HAR02;2018;12;5;7;42;0;-37.626950;77.143867;1.5;13;3.9;30;;;;;;;;3737617S;07708632E;;0;;;
HAR02;2018;12;5;7;58;0;-37.627367;77.143250;0.2;42;3.89;33.5;;;;;;;;3737642S;07708595E;;0;;;
HAR02;2018;12;5;8;13;0;-37.627617;77.143200;0.4;6;3.89;34;;;;;;;;3737657S;07708592E;;0;;;
HAR02;2018;12;5;8;28;0;-37.627267;77.143767;0.9;6;3.89;35;;;;;;;;3737636S;07708626E;;0;;;
HAR02;2018;12;5;8;43;0;-37.627067;77.143983;0.9;6;3.89;35;;;;;;;;3737624S;07708639E;;0;;;
HAR02;2018;12;5;8;58;0;-37.626533;77.143967;1.7;6;3.89;34.5;;;;;;;;3737592S;07708638E;;0;;;
HAR02;2018;12;5;9;14;0;-37.626633;77.135000;0.5;61;3.9;29.5;;;;;;;;3737598S;07708100E;;0;;;
HAR02;2018;12;5;9;30;0;-37.626417;77.133567;14.;5;3.9;25.5;;;;;;;;3737585S;07708014E;;0;;;
HAR02;2018;12;5;9;45;0;-37.635050;77.066633;20.;21;3.91;22;;;;;;;;3738103S;07703998E;;0;;;
HAR02;2018;12;5;10;0;0;-37.644200;76.998333;21.;12;3.91;21.5;;;;;;;;3738652S;07659900E;;0;;;
HAR02;2018;12;5;10;16;0;-37.653067;76.925617;23.;16;3.91;21.5;;;;;;;;3739184S;07655537E;;0;;;
HAR02;2018;12;5;10;31;0;-37.654267;76.845500;0.4;16;3.91;22.5;;;;;;;;3739256S;07650730E;;0;;;
HAR02;2018;12;5;10;47;0;-37.664400;76.786350;17.;55;3.91;20.5;;;;;;;;3739864S;07647181E;;0;;;
HAR02;2018;12;5;11;3;0;-37.667500;76.712917;21.;34;3.91;21;;;;;;;;3740050S;07642775E;;0;;;
HAR02;2018;12;5;11;19;0;-37.687633;76.644950;23.;41;3.91;20.5;;;;;;;;3741258S;07638697E;;0;;;
HAR02;2018;12;5;11;34;0;-37.697750;76.571083;23.;38;3.91;21.5;;;;;;;;3741865S;07634265E;;0;;;
HAR02;2018;12;5;11;50;0;-37.723350;76.519867;30.;38;3.91;21.5;;;;;;;;3743401S;07631192E;;0;;;
HAR02;2018;12;5;12;6;0;-37.741633;76.462950;17.;45;3.91;20.5;;;;;;;;3744498S;07627777E;;0;;;
HAR02;2018;12;5;12;21;0;-37.752550;76.398633;20.;22;3.91;20.5;;;;;;;;3745153S;07623918E;;0;;;
HAR02;2018;12;5;12;38;0;-37.748000;76.318283;25.;86;3.91;20;;;;;;;;3744880S;07619097E;;0;;;
HAR02;2018;12;5;12;53;0;-37.743267;76.236650;21.;11;3.91;19.5;;;;;;;;3744596S;07614199E;;0;;;
HAR02;2018;12;5;13;8;0;-37.759150;76.175200;18.;13;3.91;19.5;;;;;;;;3745549S;07610512E;;0;;;
HAR02;2018;12;5;13;24;0;-37.765067;76.110017;25.;16;3.91;19.5;;;;;;;;3745904S;07606601E;;0;;;
HAR02;2018;12;5;13;40;0;-37.752883;76.066750;0.3;40;3.91;21;;;;;;;;3745173S;07604005E;;0;;;
HAR02;2018;12;5;13;55;0;-37.753017;76.018250;22.;5;3.91;19;;;;;;;;3745181S;07601095E;;0;;;
HAR02;2018;12;5;14;10;0;-37.753683;75.942750;20.;5;3.91;18.5;;;;;;;;3745221S;07556565E;;0;;;
HAR02;2018;12;5;14;25;0;-37.746500;75.875683;21.;5;3.91;18.5;;;;;;;;3744790S;07552541E;;0;;;
HAR02;2018;12;5;14;40;0;-37.745100;75.814633;21.;9;3.91;18.5;;;;;;;;3744706S;07548878E;;0;;;
HAR02;2018;12;5;14;56;0;-37.760500;75.759967;22.;8;3.9;18.5;;;;;;;;3745630S;07545598E;;0;;;
HAR02;2018;12;5;15;11;0;-37.797817;75.718867;15.;5;3.9;19;;;;;;;;3747869S;07543132E;;0;;;
HAR02;2018;12;5;15;26;0;-37.833217;75.705300;0.9;5;3.9;20.5;;;;;;;;3749993S;07542318E;;0;;;
HAR02;2018;12;5;15;41;0;-37.833517;75.704150;0.6;9;3.9;22;;;;;;;;3750011S;07542249E;;0;;;
HAR02;2018;12;5;15;56;0;-37.833900;75.703200;0.2;5;3.9;23;;;;;;;;3750034S;07542192E;;0;;;
HAR02;2018;12;5;16;12;0;-37.834650;75.701550;0.1;13;3.9;23;;;;;;;;3750079S;07542093E;;0;;;
HAR02;2018;12;5;16;27;0;-37.835150;75.700967;0.6;35;3.9;23.5;;;;;;;;3750109S;07542058E;;0;;;
HAR02;2018;12;5;16;43;0;-37.835500;75.700200;1.4;8;3.9;24;;;;;;;;3750130S;07542012E;;0;;;
HAR02;2018;12;5;16;58;0;-37.836233;75.699283;0.2;13;3.89;24;;;;;;;;3750174S;07541957E;;0;;;
HAR02;2018;12;5;17;13;0;-37.836983;75.698183;0.5;11;3.89;24;;;;;;;;3750219S;07541891E;;0;;;
HAR02;2018;12;5;17;28;0;-37.837933;75.697250;1.0;8;3.89;24.5;;;;;;;;3750276S;07541835E;;0;;;
HAR02;2018;12;5;17;44;0;-37.838583;75.696350;0.0;5;3.89;24.5;;;;;;;;3750315S;07541781E;;0;;;
HAR02;2018;12;5;17;59;0;-37.837400;75.697150;0.2;7;3.89;22.5;;;;;;;;3750244S;07541829E;;0;;;
HAR02;2018;12;5;18;15;0;-37.838250;75.697100;0.9;64;3.89;23;;;;;;;;3750295S;07541826E;;0;;;
HAR02;2018;12;5;18;30;0;-37.839317;75.697450;0.9;6;3.88;24;;;;;;;;3750359S;07541847E;;0;;;
HAR02;2018;12;5;18;45;0;-37.839467;75.698250;2.1;6;3.88;23.5;;;;;;;;3750368S;07541895E;;0;;;
HAR02;2018;12;5;19;1;0;-37.840533;75.697867;1.4;11;3.89;23;;;;;;;;3750432S;07541872E;;0;;;
HAR02;2018;12;5;19;16;0;-37.841333;75.698417;0.2;39;3.88;23.5;;;;;;;;3750480S;07541905E;;0;;;
HAR02;2018;12;5;19;32;0;-37.841983;75.698817;1.2;8;3.88;24;;;;;;;;3750519S;07541929E;;0;;;
HAR02;2018;12;5;19;47;0;-37.843317;75.699950;1.1;11;3.88;23;;;;;;;;3750599S;07541997E;;0;;;
HAR02;2018;12;5;20;2;0;-37.843800;75.701850;0.1;12;3.88;23.5;;;;;;;;3750628S;07542111E;;0;;;
HAR02;2018;12;5;20;17;0;-37.844100;75.703850;0.5;13;3.88;24;;;;;;;;3750646S;07542231E;;0;;;
HAR02;2018;12;5;20;33;0;-37.844083;75.705967;0.2;12;3.88;24.5;;;;;;;;3750645S;07542358E;;0;;;
HAR02;2018;12;5;20;49;0;-37.843983;75.707383;0.2;41;3.88;25;;;;;;;;3750639S;07542443E;;0;;;
HAR02;2018;12;5;21;4;0;-37.843533;75.708517;0.7;6;3.88;23;;;;;;;;3750612S;07542511E;;0;;;
HAR02;2018;12;5;21;19;0;-37.843167;75.709783;0.4;9;3.88;24;;;;;;;;3750590S;07542587E;;0;;;
HAR02;2018;12;5;21;35;0;-37.843333;75.711333;0.2;28;3.88;23.5;;;;;;;;3750600S;07542680E;;0;;;
HAR02;2018;12;5;21;50;0;-37.843667;75.712500;0.5;5;3.88;24;;;;;;;;3750620S;07542750E;;0;;;
HAR02;2018;12;5;22;5;0;-37.843850;75.713250;1.5;6;3.88;24.5;;;;;;;;3750631S;07542795E;;0;;;
HAR02;2018;12;5;22;20;0;-37.850767;75.709550;9.9;7;3.88;21;;;;;;;;3751046S;07542573E;;0;;;
HAR02;2018;12;5;22;35;0;-37.882083;75.679800;33.;13;3.88;19;;;;;;;;3752925S;07540788E;;0;;;
HAR02;2018;12;5;22;51;0;-37.902117;75.652900;18.;6;3.88;19.5;;;;;;;;3754127S;07539174E;;0;;;
HAR02;2018;12;5;23;6;0;-37.938767;75.605617;21.;7;3.88;19;;;;;;;;3756326S;07536337E;;0;;;
HAR02;2018;12;5;23;21;0;-37.966200;75.594783;1.1;6;3.88;19.5;;;;;;;;3757972S;07535687E;;0;;;
HAR02;2018;12;5;23;36;0;-37.965483;75.595683;0.8;8;3.88;20.5;;;;;;;;3757929S;07535741E;;0;;;
HAR02;2018;12;5;23;52;0;-37.964750;75.595917;0.4;8;3.88;22;;;;;;;;3757885S;07535755E;;0;;;
HAR02;2018;12;6;0;7;0;-37.999233;75.606700;27.;7;3.88;18;;;;;;;;3759954S;07536402E;;0;;;
HAR02;2018;12;6;0;22;0;-38.047817;75.608833;0.6;10;3.88;18.5;;;;;;;;3802869S;07536530E;;0;;;
HAR02;2018;12;6;0;37;0;-38.049350;75.609000;0.9;9;3.88;21;;;;;;;;3802961S;07536540E;;0;;;
HAR02;2018;12;6;0;52;0;-38.071367;75.633983;32.;9;3.88;18.5;;;;;;;;3804282S;07538039E;;0;;;
HAR02;2018;12;6;1;8;0;-38.102833;75.687250;23.;8;3.88;19.5;;;;;;;;3806170S;07541235E;;0;;;
HAR02;2018;12;6;1;23;0;-38.137167;75.740367;21.;8;3.88;20.5;;;;;;;;3808230S;07544422E;;0;;;
HAR02;2018;12;6;1;38;0;-38.177133;75.796233;32.;9;3.88;20;;;;;;;;3810628S;07547774E;;0;;;
HAR02;2018;12;6;1;53;0;-38.231117;75.830033;34.;8;3.89;20;;;;;;;;3813867S;07549802E;;0;;;
HAR02;2018;12;6;2;9;0;-38.224600;75.932533;25.;11;3.89;20;;;;;;;;3813476S;07555952E;;0;;;
HAR02;2018;12;6;2;24;0;-38.215517;76.003367;0.6;22;3.89;21.5;;;;;;;;3812931S;07600202E;;0;;;
HAR02;2018;12;6;2;39;0;-38.214450;76.088000;31.;11;3.9;22;;;;;;;;3812867S;07605280E;;0;;;
HAR02;2018;12;6;2;55;0;-38.195450;76.161017;31.;19;3.9;21;;;;;;;;3811727S;07609661E;;0;;;
HAR02;2018;12;6;3;10;0;-38.219500;76.255233;24.;14;3.91;20.5;;;;;;;;3813170S;07615314E;;0;;;
HAR02;2018;12;6;3;25;0;-38.233367;76.296500;0.7;13;3.91;22;;;;;;;;3814002S;07617790E;;0;;;
HAR02;2018;12;6;3;41;0;-38.233683;76.297850;1.3;14;3.91;24;;;;;;;;3814021S;07617871E;;0;;;
HAR02;2018;12;6;3;56;0;-38.234033;76.299317;0.7;22;3.91;23.5;;;;;;;;3814042S;07617959E;;0;;;
HAR02;2018;12;6;4;11;0;-38.231700;76.317050;13.;10;3.91;20.5;;;;;;;;3813902S;07619023E;;0;;;
HAR02;2018;12;6;4;27;0;-38.199050;76.401883;19.;13;3.91;20.5;;;;;;;;3811943S;07624113E;;0;;;
HAR02;2018;12;6;4;42;0;-38.162833;76.489917;35.;10;3.91;21.5;;;;;;;;3809770S;07629395E;;0;;;
HAR02;2018;12;6;4;57;0;-38.119150;76.600683;27.;9;3.92;21;;;;;;;;3807149S;07636041E;;0;;;
HAR02;2018;12;6;5;13;0;-38.101217;76.709717;11.;12;3.92;21.5;;;;;;;;3806073S;07642583E;;0;;;
HAR02;2018;12;6;5;28;0;-38.069400;76.820817;28.;9;3.93;22.5;;;;;;;;3804164S;07649249E;;0;;;
HAR02;2018;12;6;5;43;0;-38.042683;76.917367;35.;14;3.94;23;;;;;;;;3802561S;07655042E;;0;;;
HAR02;2018;12;6;5;58;0;-38.004917;77.017567;22.;10;3.95;23;;;;;;;;3800295S;07701054E;;0;;;
HAR02;2018;12;6;6;14;0;-37.972283;77.116967;29.;15;3.96;23.5;;;;;;;;3758337S;07707018E;;0;;;
HAR02;2018;12;6;6;29;0;-37.923217;77.214133;20.;24;3.97;24.5;;;;;;;;3755393S;07712848E;;0;;;
HAR02;2018;12;6;6;45;0;-37.901433;77.296617;0.3;16;3.98;25;;;;;;;;3754086S;07717797E;;0;;;
HAR02;2018;12;6;7;0;0;-37.893033;77.329350;33.;17;3.98;22.5;;;;;;;;3753582S;07719761E;;0;;;
HAR02;2018;12;6;7;15;0;-37.859733;77.443933;25.;12;3.98;23;;;;;;;;3751584S;07726636E;;0;;;
HAR02;2018;12;6;7;31;0;-37.855333;77.496950;0.4;19;3.98;23;;;;;;;;3751320S;07729817E;;0;;;
HAR02;2018;12;6;7;46;25;;;;;;;;;;;;1;;;;3.98;0;;;
HAR02;2018;12;6;7;46;26;;;;;;;;;;;;1;;;;3.98;0;;;
HAR02;2018;12;6;7;46;29;;;;;;;;;;;;1;;;;3.98;0;;;
HAR02;2018;12;6;7;46;30;;;;;;;;;;;;1;;;;3.98;0;;;
HAR02;2018;12;6;7;46;31;;;;;;;;;;;;1;;;;3.98;0;;;
HAR02;2018;12;6;7;47;0;-37.857300;77.523917;0.5;29;3.98;21.5;;;;;;;;3751438S;07731435E;;0;;;
HAR02;2018;12;6;7;52;4;;;;;;;;;;;;1;;;;3.98;0;;;
HAR02;2018;12;6;7;52;5;;;;;;;;;;;;1;;;;3.98;0;;;
HAR02;2018;12;6;7;56;59;;;;;;;;;;;;1;;;;3.98;0;;;
HAR02;2018;12;6;7;57;0;;;;;;;;;;;;1;;;;3.98;0;;;
HAR02;2018;12;6;8;1;57;;;;;;;;;;;;1;;;;3.98;0;;;
HAR02;2018;12;6;8;1;58;;;;;;;;;;;;1;;;;3.98;0;;;
HAR02;2018;12;6;8;2;3;;;;;;;;;;;;1;;;;3.98;0;;;
HAR02;2018;12;6;8;2;4;;;;;;;;;;;;1;;;;3.98;0;;;
HAR02;2018;12;6;8;2;5;;;;;;;;;;;;1;;;;3.98;0;;;
HAR02;2018;12;6;8;3;0;-37.854267;77.523850;0.7;65;3.98;27;;;;;;;;3751256S;07731431E;;0;;;
HAR02;2018;12;6;8;8;18;;;;;;;;;;;;1;;;;3.97;0;;;
HAR02;2018;12;6;8;8;19;;;;;;;;;;;;1;;;;3.97;0;;;
HAR02;2018;12;6;8;13;13;;;;;;;;;;;;1;;;;3.98;0;;;
HAR02;2018;12;6;8;13;14;;;;;;;;;;;;1;;;;3.98;0;;;
HAR02;2018;12;6;8;18;0;-37.854567;77.524217;0.9;8;3.97;28.5;;;;;;;;3751274S;07731453E;;0;;;
HAR02;2018;12;6;8;18;10;;;;;;;;;;;;1;;;;3.97;0;;;
HAR02;2018;12;6;8;18;11;;;;;;;;;;;;1;;;;3.97;0;;;
HAR02;2018;12;6;8;18;17;;;;;;;;;;;;1;;;;3.98;0;;;
HAR02;2018;12;6;8;18;18;;;;;;;;;;;;1;;;;3.97;0;;;
HAR02;2018;12;6;8;18;19;;;;;;;;;;;;1;;;;3.97;0;;;
HAR02;2018;12;6;8;23;32;;;;;;;;;;;;1;;;;3.97;0;;;
HAR02;2018;12;6;8;23;33;;;;;;;;;;;;1;;;;3.97;0;;;
HAR02;2018;12;6;8;28;27;;;;;;;;;;;;1;;;;3.97;0;;;
HAR02;2018;12;6;8;28;28;;;;;;;;;;;;1;;;;3.97;0;;;
HAR02;2018;12;6;8;33;0;-37.854483;77.524183;0.7;9;3.97;29.5;;;;;;;;3751269S;07731451E;;0;;;
HAR02;2018;12;6;8;33;25;;;;;;;;;;;;1;;;;3.97;0;;;
HAR02;2018;12;6;8;33;26;;;;;;;;;;;;1;;;;3.97;0;;;
HAR02;2018;12;6;8;33;31;;;;;;;;;;;;1;;;;3.97;0;;;
HAR02;2018;12;6;8;33;32;;;;;;;;;;;;1;;;;3.97;0;;;
HAR02;2018;12;6;8;33;33;;;;;;;;;;;;1;;;;3.97;0;;;
HAR02;2018;12;6;8;38;48;;;;;;;;;;;;1;;;;3.97;0;;;
