Logger ID;Year;Month;Day;Hour;Minute;Second;Latitude;Longitude;Speed;Searching time;Voltage;Temperature;Altitude;Div up;Div down;No GPS - timeout;No GPS - diving;In range;Diving duration;Raw latitude;Raw Longitude;Decision voltage;Milisecond;Acc_X;Acc_Y;Acc_Z
HAR09;2018;12;2;6;22;0;-37.854217;77.523850;0.9;300;4.05;22;;;;;;;;3751253S;07731431E;;0;;;
HAR09;2018;12;2;6;22;0;-37.854167;77.523817;0.5;27;4.03;22;;;;;;;;3751250S;07731429E;;0;;;
HAR09;2018;12;2;6;22;30;;;;;;;;;;;;1;;;;4.03;0;;;
HAR09;2018;12;2;6;22;58;;;;;;;;;;;;1;;;;4.03;0;;;
HAR09;2018;12;2;6;23;0;-37.854250;77.523833;0.2;57;4.03;22;;;;;;;;3751255S;07731430E;;0;;;
HAR09;2018;12;2;6;23;58;;;;;;;;;;;;1;;;;4.02;0;;;
HAR09;2018;12;2;6;24;0;-37.854217;77.523833;0.4;50;4.02;22;;;;;;;;3751253S;07731430E;;0;;;
HAR09;2018;12;2;6;29;48;;;;;;;;;;;;1;;;;4.03;0;;;
HAR09;2018;12;2;6;29;50;;;;;;;;;;;;1;;;;4.03;0;;;
HAR09;2018;12;2;6;34;41;;;;;;;;;;;;1;;;;4.04;0;;;
HAR09;2018;12;2;6;34;42;;;;;;;;;;;;1;;;;4.03;0;;;
HAR09;2018;12;2;6;40;0;-37.844933;77.496333;0.7;24;4.05;20;;;;;;;;3750696S;07729780E;;0;;;
HAR09;2018;12;2;6;55;0;-37.842833;77.494150;0.6;11;4.07;19;;;;;;;;3750570S;07729649E;;0;;;
HAR09;2018;12;2;7;10;0;-37.822517;77.486817;0.1;13;4.08;19;;;;;;;;3749351S;07729209E;;0;;;
HAR09;2018;12;2;7;26;0;-37.723400;77.560217;45.;17;4.1;19.5;;;;;;;;3743404S;07733613E;;0;;;
HAR09;2018;12;2;7;41;0;-37.740650;77.720250;24.;23;4.12;19.5;;;;;;;;3744439S;07743215E;;0;;;
HAR09;2018;12;2;7;57;0;-37.754367;77.871767;20.;22;4.15;20;;;;;;;;3745262S;07752306E;;0;;;
HAR09;2018;12;2;8;13;0;-37.750100;78.014067;35.;20;4.12;22;;;;;;;;3745006S;07800844E;;0;;;
HAR09;2018;12;2;8;30;0;-37.691233;78.195350;19.;155;4.14;21;;;;;;;;3741474S;07811721E;;0;;;
HAR09;2018;12;2;8;46;0;-37.703683;78.325583;0.9;25;4.14;20;;;;;;;;3742221S;07819535E;;0;;;
HAR09;2018;12;2;9;3;0;-37.722533;78.450000;41.;63;4.12;21;;;;;;;;3743352S;07827000E;;0;;;
HAR09;2018;12;2;9;18;0;-37.740583;78.528583;0.0;12;4.12;17;;;;;;;;3744435S;07831715E;;0;;;
HAR09;2018;12;2;9;34;0;-37.780950;78.670067;29.;34;4.14;19;;;;;;;;3746857S;07840204E;;0;;;
HAR09;2018;12;2;9;50;0;-37.818400;78.791533;28.;43;4.12;19.5;;;;;;;;3749104S;07847492E;;0;;;
HAR09;2018;12;2;10;6;0;-37.872833;78.913550;27.;14;4.15;17;;;;;;;;3752370S;07854813E;;0;;;
HAR09;2018;12;2;10;21;0;-37.916567;78.993217;12.;2;4.12;20;;;;;;;;3754994S;07859593E;;0;;;
HAR09;2018;12;2;10;37;0;-37.967600;79.076983;10.;19;4.13;17.5;;;;;;;;3758056S;07904619E;;0;;;
HAR09;2018;12;2;10;52;0;-38.014000;79.162250;16.;6;4.13;16.5;;;;;;;;3800840S;07909735E;;0;;;
HAR09;2018;12;2;11;7;0;-38.069483;79.250617;1.6;18;4.14;15.5;;;;;;;;3804169S;07915037E;;0;;;
HAR09;2018;12;2;11;23;0;-38.067350;79.253183;0.7;34;4.13;14;;;;;;;;3804041S;07915191E;;0;;;
HAR09;2018;12;2;11;38;0;-38.082650;79.275117;22.;6;4.14;14;;;;;;;;3804959S;07916507E;;0;;;
HAR09;2018;12;2;11;54;0;-38.119867;79.278367;15.;17;4.14;15;;;;;;;;3807192S;07916702E;;0;;;
HAR09;2018;12;2;12;9;0;-38.126367;79.272250;14.;5;4.15;14.5;;;;;;;;3807582S;07916335E;;0;;;
HAR09;2018;12;2;12;24;0;-38.109283;79.247933;28.;9;4.15;14.5;;;;;;;;3806557S;07914876E;;0;;;
HAR09;2018;12;2;12;39;0;-38.119400;79.268717;31.;6;4.15;14;;;;;;;;3807164S;07916123E;;0;;;
HAR09;2018;12;2;12;55;0;-38.120567;79.260767;21.;3;4.12;16;;;;;;;;3807234S;07915646E;;0;;;
HAR09;2018;12;2;13;10;0;-38.122783;79.268883;23.;5;4.13;14;;;;;;;;3807367S;07916133E;;0;;;
HAR09;2018;12;2;13;25;0;-38.131367;79.245467;22.;6;4.13;14;;;;;;;;3807882S;07914728E;;0;;;
HAR09;2018;12;2;13;40;0;-38.143483;79.229083;46.;10;4.13;14.5;;;;;;;;3808609S;07913745E;;0;;;
HAR09;2018;12;2;13;56;0;-38.134283;79.241200;38.;12;4.13;14.5;;;;;;;;3808057S;07914472E;;0;;;
HAR09;2018;12;2;14;12;0;-38.114267;79.225000;21.;49;4.13;14;;;;;;;;3806856S;07913500E;;0;;;
HAR09;2018;12;2;14;27;0;-38.144833;79.229167;8.1;26;4.12;14;;;;;;;;3808690S;07913750E;;0;;;
HAR09;2018;12;2;14;43;0;-38.148233;79.234550;0.9;21;4.12;14.5;;;;;;;;3808894S;07914073E;;0;;;
HAR09;2018;12;2;14;58;0;-38.146933;79.237217;1.3;39;4.12;14;;;;;;;;3808816S;07914233E;;0;;;
HAR09;2018;12;2;15;14;0;-38.145833;79.240100;0.5;5;4.12;14;;;;;;;;3808750S;07914406E;;0;;;
HAR09;2018;12;2;15;29;0;-38.145017;79.243517;3.4;4;4.12;13.5;;;;;;;;3808701S;07914611E;;0;;;
HAR09;2018;12;2;15;44;0;-38.143633;79.247750;1.1;5;4.12;13.5;;;;;;;;3808618S;07914865E;;0;;;
HAR09;2018;12;2;15;59;0;-38.142083;79.252717;0.8;6;4.12;14;;;;;;;;3808525S;07915163E;;0;;;
HAR09;2018;12;2;16;14;0;-38.140050;79.257300;2.2;6;4.12;15.5;;;;;;;;3808403S;07915438E;;0;;;
HAR09;2018;12;2;16;29;0;-38.137683;79.261383;0.4;6;4.12;16;;;;;;;;3808261S;07915683E;;0;;;
HAR09;2018;12;2;16;45;0;-38.135050;79.265900;0.8;7;4.12;16;;;;;;;;3808103S;07915954E;;0;;;
HAR09;2018;12;2;17;0;0;-38.132450;79.270417;1.4;12;4.11;15;;;;;;;;3807947S;07916225E;;0;;;
HAR09;2018;12;2;17;15;0;-38.129467;79.274567;2.3;7;4.11;15.5;;;;;;;;3807768S;07916474E;;0;;;
HAR09;2018;12;2;17;30;0;-38.126317;79.278700;1.4;11;4.11;15.5;;;;;;;;3807579S;07916722E;;0;;;
HAR09;2018;12;2;17;46;0;-38.123217;79.283167;0.4;12;4.11;15.5;;;;;;;;3807393S;07916990E;;0;;;
HAR09;2018;12;2;18;1;0;-38.117017;79.287817;2.6;11;4.11;15.5;;;;;;;;3807021S;07917269E;;0;;;
HAR09;2018;12;2;18;17;0;-38.111267;79.292100;0.7;24;4.11;15.5;;;;;;;;3806676S;07917526E;;0;;;
HAR09;2018;12;2;18;32;0;-38.105917;79.296300;0.7;7;4.11;16;;;;;;;;3806355S;07917778E;;0;;;
HAR09;2018;12;2;18;47;0;-38.100433;79.300200;1.9;31;4.1;16;;;;;;;;3806026S;07918012E;;0;;;
HAR09;2018;12;2;19;3;0;-38.094433;79.304133;1.8;24;4.1;16.5;;;;;;;;3805666S;07918248E;;0;;;
HAR09;2018;12;2;19;19;0;-38.088633;79.307200;1.6;34;4.1;15.5;;;;;;;;3805318S;07918432E;;0;;;
HAR09;2018;12;2;19;34;0;-38.082850;79.310867;1.7;4;4.09;15.5;;;;;;;;3804971S;07918652E;;0;;;
HAR09;2018;12;2;19;49;0;-38.077183;79.314367;3.0;4;4.09;15;;;;;;;;3804631S;07918862E;;0;;;
HAR09;2018;12;2;20;4;0;-38.071333;79.318017;2.0;7;4.09;15;;;;;;;;3804280S;07919081E;;0;;;
HAR09;2018;12;2;20;19;0;-38.065317;79.321733;1.8;5;4.09;14.5;;;;;;;;3803919S;07919304E;;0;;;
HAR09;2018;12;2;20;34;0;-38.059250;79.324533;1.3;5;4.09;15;;;;;;;;3803555S;07919472E;;0;;;
HAR09;2018;12;2;20;50;0;-38.053017;79.327250;1.4;6;4.09;15;;;;;;;;3803181S;07919635E;;0;;;
HAR09;2018;12;2;21;5;0;-38.046733;79.330033;2.3;7;4.09;14.5;;;;;;;;3802804S;07919802E;;0;;;
HAR09;2018;12;2;21;20;0;-38.039983;79.331400;3.0;8;4.09;13.5;;;;;;;;3802399S;07919884E;;0;;;
HAR09;2018;12;2;21;35;0;-38.033750;79.333117;0.9;5;4.09;13.5;;;;;;;;3802025S;07919987E;;0;;;
HAR09;2018;12;2;21;51;0;-38.028733;79.336050;1.0;9;4.09;13;;;;;;;;3801724S;07920163E;;0;;;
HAR09;2018;12;2;22;6;0;-38.022600;79.338117;1.2;25;4.08;13;;;;;;;;3801356S;07920287E;;0;;;
HAR09;2018;12;2;22;21;0;-38.000783;79.338883;27.;13;4.08;12.5;;;;;;;;3800047S;07920333E;;0;;;
HAR09;2018;12;2;22;37;0;-37.954950;79.286450;37.;12;4.08;13.5;;;;;;;;3757297S;07917187E;;0;;;
HAR09;2018;12;2;22;52;0;-37.934267;79.243800;10.;8;4.08;13.5;;;;;;;;3756056S;07914628E;;0;;;
HAR09;2018;12;2;23;7;0;-37.964300;79.277367;16.;9;4.08;13.5;;;;;;;;3757858S;07916642E;;0;;;
HAR09;2018;12;2;23;22;0;-37.976767;79.265333;48.;6;4.08;13;;;;;;;;3758606S;07915920E;;0;;;
HAR09;2018;12;2;23;38;0;-38.027783;79.284567;30.;11;4.08;13;;;;;;;;3801667S;07917074E;;0;;;
HAR09;2018;12;2;23;53;0;-38.056550;79.288417;0.5;7;4.08;12.5;;;;;;;;3803393S;07917305E;;0;;;
HAR09;2018;12;3;0;8;0;-38.030117;79.249767;14.;16;4.08;12;;;;;;;;3801807S;07914986E;;0;;;
HAR09;2018;12;3;0;24;0;-38.044117;79.240833;21.;40;4.08;13;;;;;;;;3802647S;07914450E;;0;;;
HAR09;2018;12;3;0;40;0;-38.083150;79.257217;13.;82;4.08;13.5;;;;;;;;3804989S;07915433E;;0;;;
HAR09;2018;12;3;0;56;0;-38.112967;79.244000;27.;9;4.08;14;;;;;;;;3806778S;07914640E;;0;;;
HAR09;2018;12;3;1;11;0;-38.131733;79.233100;14.;10;4.08;14.5;;;;;;;;3807904S;07913986E;;0;;;
HAR09;2018;12;3;1;26;0;-38.151533;79.231567;27.;15;4.08;15.5;;;;;;;;3809092S;07913894E;;0;;;
HAR09;2018;12;3;1;42;0;-38.140050;79.233550;20.;12;4.09;16;;;;;;;;3808403S;07914013E;;0;;;
HAR09;2018;12;3;1;57;0;-38.137233;79.234983;45.;10;4.1;16.5;;;;;;;;3808234S;07914099E;;0;;;
HAR09;2018;12;3;2;12;0;-38.142317;79.221200;15.;11;4.12;16.5;;;;;;;;3808539S;07913272E;;0;;;
HAR09;2018;12;3;2;27;0;-38.147100;79.216683;22.;12;4.13;17.5;;;;;;;;3808826S;07913001E;;0;;;
HAR09;2018;12;3;2;43;0;-38.129033;79.224717;25.;13;4.15;17;;;;;;;;3807742S;07913483E;;0;;;
HAR09;2018;12;3;2;59;0;-38.109517;79.261900;13.;3;4.12;20;;;;;;;;3806571S;07915714E;;0;;;
HAR09;2018;12;3;3;14;0;-38.108333;79.252100;39.;9;4.15;15;;;;;;;;3806500S;07915126E;;0;;;
HAR09;2018;12;3;3;30;0;-38.106200;79.247700;17.;2;4.12;18.5;;;;;;;;3806372S;07914862E;;0;;;
HAR09;2018;12;3;3;45;0;-38.129983;79.250000;19.;3;4.15;18.5;;;;;;;;3807799S;07915000E;;0;;;
HAR09;2018;12;3;4;1;0;-38.124883;79.224483;39.;7;4.12;20;;;;;;;;3807493S;07913469E;;0;;;
HAR09;2018;12;3;4;16;0;-38.146417;79.209600;25.;6;4.13;18;;;;;;;;3808785S;07912576E;;0;;;
HAR09;2018;12;3;4;32;0;-38.132817;79.174617;34.;2;4.13;19.5;;;;;;;;3807969S;07910477E;;0;;;
HAR09;2018;12;3;4;48;0;-38.132450;79.220533;1.4;7;4.12;21.5;;;;;;;;3807947S;07913232E;;0;;;
HAR09;2018;12;3;5;3;0;-38.121767;79.242900;43.;3;4.14;18;;;;;;;;3807306S;07914574E;;0;;;
HAR09;2018;12;3;5;19;0;-38.085117;79.259950;19.;7;4.12;20;;;;;;;;3805107S;07915597E;;0;;;
HAR09;2018;12;3;5;34;0;-38.092817;79.263833;16.;3;4.13;20;;;;;;;;3805569S;07915830E;;0;;;
HAR09;2018;12;3;5;50;0;-38.096733;79.236350;3.9;5;4.13;21;;;;;;;;3805804S;07914181E;;0;;;
HAR09;2018;12;3;6;6;0;-38.119650;79.256183;17.;10;4.14;22;;;;;;;;3807179S;07915371E;;0;;;
HAR09;2018;12;3;6;22;0;-38.128767;79.231867;23.;6;4.13;22;;;;;;;;3807726S;07913912E;;0;;;
HAR09;2018;12;3;6;37;0;-38.124917;79.206983;1.0;5;4.12;23.5;;;;;;;;3807495S;07912419E;;0;;;
HAR09;2018;12;3;6;53;0;-38.122733;79.206600;1.1;16;4.14;19;;;;;;;;3807364S;07912396E;;0;;;
HAR09;2018;12;3;7;8;0;-38.120783;79.205900;1.6;8;4.14;24;;;;;;;;3807247S;07912354E;;0;;;
HAR09;2018;12;3;7;23;0;-38.117683;79.207300;1.3;10;4.14;23.5;;;;;;;;3807061S;07912438E;;0;;;
HAR09;2018;12;3;7;38;0;-38.115067;79.207550;0.9;13;4.14;29.5;;;;;;;;3806904S;07912453E;;0;;;
HAR09;2018;12;3;7;54;0;-38.112733;79.207767;0.2;15;4.14;21;;;;;;;;3806764S;07912466E;;0;;;
HAR09;2018;12;3;8;9;0;-38.111217;79.207800;0.5;12;4.14;21.5;;;;;;;;3806673S;07912468E;;0;;;
HAR09;2018;12;3;8;24;0;-38.108017;79.208683;3.4;17;4.15;22;;;;;;;;3806481S;07912521E;;0;;;
HAR09;2018;12;3;8;40;0;-38.107100;79.210167;0.0;29;4.15;21.5;;;;;;;;3806426S;07912610E;;0;;;
HAR09;2018;12;3;8;55;0;-38.104933;79.211267;2.6;6;4.15;20.5;;;;;;;;3806296S;07912676E;;0;;;
HAR09;2018;12;3;9;11;0;-38.116633;79.231817;21.;2;4.13;20;;;;;;;;3806998S;07913909E;;0;;;
HAR09;2018;12;3;9;26;0;-38.145700;79.267733;32.;4;4.13;18;;;;;;;;3808742S;07916064E;;0;;;
HAR09;2018;12;3;9;41;0;-38.145633;79.221067;24.;7;4.15;15.5;;;;;;;;3808738S;07913264E;;0;;;
HAR09;2018;12;3;9;57;0;-38.157450;79.194233;18.;2;4.11;19;;;;;;;;3809447S;07911654E;;0;;;
HAR09;2018;12;3;10;12;0;-38.159833;79.146650;24.;7;4.13;16.5;;;;;;;;3809590S;07908799E;;0;;;
HAR09;2018;12;3;10;28;0;-38.137300;79.076167;19.;9;4.14;15.5;;;;;;;;3808238S;07904570E;;0;;;
HAR09;2018;12;3;10;43;0;-38.098383;78.991667;34.;7;4.14;16;;;;;;;;3805903S;07859500E;;0;;;
HAR09;2018;12;3;10;58;0;-38.071067;78.912800;13.;6;4.15;16;;;;;;;;3804264S;07854768E;;0;;;
HAR09;2018;12;3;11;13;0;-38.042750;78.835950;22.;8;4.14;17;;;;;;;;3802565S;07850157E;;0;;;
HAR09;2018;12;3;11;29;0;-38.029567;78.767667;22.;2;4.12;18.5;;;;;;;;3801774S;07846060E;;0;;;
HAR09;2018;12;3;11;44;0;-38.026967;78.714950;14.;7;4.14;16;;;;;;;;3801618S;07842897E;;0;;;
HAR09;2018;12;3;11;59;0;-38.012367;78.649483;19.;9;4.15;16.5;;;;;;;;3800742S;07838969E;;0;;;
HAR09;2018;12;3;12;14;0;-37.996817;78.592167;15.;8;4.15;15.5;;;;;;;;3759809S;07835530E;;0;;;
HAR09;2018;12;3;12;30;0;-37.993267;78.547950;25.;14;4.15;15.5;;;;;;;;3759596S;07832877E;;0;;;
HAR09;2018;12;3;12;45;0;-38.015633;78.537900;31.;9;4.12;17.5;;;;;;;;3800938S;07832274E;;0;;;
HAR09;2018;12;3;13;0;0;-38.030700;78.521150;32.;9;4.14;15.5;;;;;;;;3801842S;07831269E;;0;;;
HAR09;2018;12;3;13;16;0;-38.021517;78.500500;1.2;9;4.14;15;;;;;;;;3801291S;07830030E;;0;;;
HAR09;2018;12;3;13;31;0;-38.015933;78.509233;15.;8;4.14;13;;;;;;;;3800956S;07830554E;;0;;;
HAR09;2018;12;3;13;46;0;-38.023250;78.507700;1.0;18;4.14;13;;;;;;;;3801395S;07830462E;;0;;;
HAR09;2018;12;3;14;1;0;-38.021267;78.508533;0.5;7;4.14;14;;;;;;;;3801276S;07830512E;;0;;;
HAR09;2018;12;3;14;17;0;-38.017950;78.507400;1.5;8;4.13;14;;;;;;;;3801077S;07830444E;;0;;;
HAR09;2018;12;3;14;32;0;-38.013683;78.507133;2.3;9;4.13;13.5;;;;;;;;3800821S;07830428E;;0;;;
HAR09;2018;12;3;14;47;0;-38.011317;78.509033;1.1;8;4.13;13.5;;;;;;;;3800679S;07830542E;;0;;;
HAR09;2018;12;3;15;2;0;-38.009200;78.510700;1.0;11;4.13;13.5;;;;;;;;3800552S;07830642E;;0;;;
HAR09;2018;12;3;15;18;0;-38.006883;78.512967;2.5;8;4.13;14;;;;;;;;3800413S;07830778E;;0;;;
HAR09;2018;12;3;15;33;0;-38.004500;78.515083;3.4;7;4.13;13.5;;;;;;;;3800270S;07830905E;;0;;;
HAR09;2018;12;3;15;48;0;-38.002417;78.517017;1.0;8;4.13;14;;;;;;;;3800145S;07831021E;;0;;;
HAR09;2018;12;3;16;3;0;-38.000467;78.519133;1.2;8;4.13;14;;;;;;;;3800028S;07831148E;;0;;;
HAR09;2018;12;3;16;19;0;-37.998933;78.520817;2.0;10;4.12;14;;;;;;;;3759936S;07831249E;;0;;;
HAR09;2018;12;3;16;34;0;-37.997950;78.522933;2.2;25;4.12;14;;;;;;;;3759877S;07831376E;;0;;;
HAR09;2018;12;3;16;49;0;-37.996283;78.524867;0.8;5;4.12;13.5;;;;;;;;3759777S;07831492E;;0;;;
HAR09;2018;12;3;17;4;0;-37.994817;78.527100;1.2;4;4.12;13.5;;;;;;;;3759689S;07831626E;;0;;;
HAR09;2018;12;3;17;20;0;-37.993617;78.529183;3.4;4;4.12;13.5;;;;;;;;3759617S;07831751E;;0;;;
HAR09;2018;12;3;17;35;0;-37.992167;78.531567;0.6;7;4.12;14;;;;;;;;3759530S;07831894E;;0;;;
HAR09;2018;12;3;17;50;0;-37.990867;78.534050;0.3;6;4.12;14;;;;;;;;3759452S;07832043E;;0;;;
HAR09;2018;12;3;18;5;0;-37.989450;78.536733;0.5;10;4.12;13;;;;;;;;3759367S;07832204E;;0;;;
HAR09;2018;12;3;18;20;0;-37.988100;78.539267;2.2;7;4.12;14;;;;;;;;3759286S;07832356E;;0;;;
HAR09;2018;12;3;18;36;0;-37.986467;78.542017;0.4;7;4.12;14.5;;;;;;;;3759188S;07832521E;;0;;;
HAR09;2018;12;3;18;51;0;-37.985117;78.544517;1.3;7;4.12;14;;;;;;;;3759107S;07832671E;;0;;;
HAR09;2018;12;3;19;6;0;-37.983583;78.546917;0.5;7;4.12;15;;;;;;;;3759015S;07832815E;;0;;;
HAR09;2018;12;3;19;21;0;-37.981767;78.549467;0.9;17;4.12;14.5;;;;;;;;3758906S;07832968E;;0;;;
HAR09;2018;12;3;19;37;0;-37.980050;78.551383;1.5;8;4.12;14;;;;;;;;3758803S;07833083E;;0;;;
HAR09;2018;12;3;19;52;0;-37.978250;78.554533;1.4;15;4.11;14;;;;;;;;3758695S;07833272E;;0;;;
HAR09;2018;12;3;20;7;0;-37.976383;78.557133;3.3;15;4.11;14;;;;;;;;3758583S;07833428E;;0;;;
HAR09;2018;12;3;20;23;0;-37.974717;78.560367;0.4;9;4.11;14.5;;;;;;;;3758483S;07833622E;;0;;;
HAR09;2018;12;3;20;38;0;-37.973300;78.563500;0.3;7;4.11;14;;;;;;;;3758398S;07833810E;;0;;;
HAR09;2018;12;3;20;53;0;-37.971950;78.566933;0.8;7;4.11;14.5;;;;;;;;3758317S;07834016E;;0;;;
HAR09;2018;12;3;21;8;0;-37.970333;78.569683;1.4;8;4.1;15;;;;;;;;3758220S;07834181E;;0;;;
HAR09;2018;12;3;21;24;0;-37.968500;78.572567;1.2;8;4.11;15;;;;;;;;3758110S;07834354E;;0;;;
HAR09;2018;12;3;21;39;0;-37.966950;78.575683;1.3;7;4.1;15;;;;;;;;3758017S;07834541E;;0;;;
HAR09;2018;12;3;21;54;0;-37.964467;78.577733;0.5;6;4.1;14.5;;;;;;;;3757868S;07834664E;;0;;;
HAR09;2018;12;3;22;9;0;-37.961950;78.580383;1.1;7;4.1;13;;;;;;;;3757717S;07834823E;;0;;;
HAR09;2018;12;3;22;24;0;-37.926333;78.545433;23.;15;4.1;12;;;;;;;;3755580S;07832726E;;0;;;
HAR09;2018;12;3;22;40;0;-37.899167;78.480050;27.;10;4.1;12.5;;;;;;;;3753950S;07828803E;;0;;;
HAR09;2018;12;3;22;55;0;-37.879567;78.431667;26.;8;4.1;13;;;;;;;;3752774S;07825900E;;0;;;
HAR09;2018;12;3;23;10;0;-37.861500;78.360250;32.;9;4.1;13.5;;;;;;;;3751690S;07821615E;;0;;;
HAR09;2018;12;3;23;25;0;-37.875017;78.309817;18.;8;4.1;13;;;;;;;;3752501S;07818589E;;0;;;
HAR09;2018;12;3;23;41;0;-37.875367;78.244500;21.;11;4.1;14;;;;;;;;3752522S;07814670E;;0;;;
HAR09;2018;12;3;23;56;0;-37.862300;78.169683;17.;8;4.09;14;;;;;;;;3751738S;07810181E;;0;;;
HAR09;2018;12;4;0;11;0;-37.859817;78.109533;14.;8;4.09;14;;;;;;;;3751589S;07806572E;;0;;;
HAR09;2018;12;4;0;26;0;-37.852517;78.033317;16.;8;4.09;14;;;;;;;;3751151S;07801999E;;0;;;
HAR09;2018;12;4;0;42;0;-37.852367;77.966383;15.;8;4.09;14.5;;;;;;;;3751142S;07757983E;;0;;;
HAR09;2018;12;4;0;57;0;-37.869467;77.913833;19.;9;4.09;15;;;;;;;;3752168S;07754830E;;0;;;
HAR09;2018;12;4;1;12;0;-37.879750;77.861550;16.;11;4.09;15;;;;;;;;3752785S;07751693E;;0;;;
HAR09;2018;12;4;1;27;0;-37.879667;77.819983;17.;11;4.09;14;;;;;;;;3752780S;07749199E;;0;;;
HAR09;2018;12;4;1;43;0;-37.876267;77.755717;12.;11;4.09;15;;;;;;;;3752576S;07745343E;;0;;;
HAR09;2018;12;4;1;58;0;-37.856467;77.677867;25.;11;4.09;15;;;;;;;;3751388S;07740672E;;0;;;
HAR09;2018;12;4;2;13;0;-37.854933;77.608217;1.3;9;4.09;15;;;;;;;;3751296S;07736493E;;0;;;
HAR09;2018;12;4;2;28;0;-37.880250;77.567450;17.;11;4.09;15.5;;;;;;;;3752815S;07734047E;;0;;;
HAR09;2018;12;4;2;44;30;;;;;;;;;;;;1;;;;4.08;0;;;
HAR09;2018;12;4;2;44;32;;;;;;;;;;;;1;;;;4.08;0;;;
HAR09;2018;12;4;2;44;37;;;;;;;;;;;;1;;;;4.08;0;;;
HAR09;2018;12;4;2;44;38;;;;;;;;;;;;1;;;;4.08;0;;;
HAR09;2018;12;4;2;45;0;-37.854400;77.523817;0.1;46;4.08;15;;;;;;;;3751264S;07731429E;;0;;;
HAR09;2018;12;4;2;50;29;;;;;;;;;;;;1;;;;4.08;0;;;
HAR09;2018;12;4;2;50;30;;;;;;;;;;;;1;;;;4.08;0;;;
HAR09;2018;12;4;2;55;24;;;;;;;;;;;;1;;;;4.08;0;;;
HAR09;2018;12;4;2;55;25;;;;;;;;;;;;1;;;;4.08;0;;;
HAR09;2018;12;4;3;0;0;-37.854600;77.524050;2.4;10;4.08;21;;;;;;;;3751276S;07731443E;;0;;;
HAR09;2018;12;4;3;0;21;;;;;;;;;;;;1;;;;4.08;0;;;
HAR09;2018;12;4;3;0;22;;;;;;;;;;;;1;;;;4.08;0;;;
HAR09;2018;12;4;3;0;28;;;;;;;;;;;;1;;;;4.08;0;;;
HAR09;2018;12;4;3;0;29;;;;;;;;;;;;1;;;;4.08;0;;;
HAR09;2018;12;4;3;0;30;;;;;;;;;;;;1;;;;4.08;0;;;
HAR09;2018;12;4;3;5;47;;;;;;;;;;;;1;;;;4.08;0;;;
HAR09;2018;12;4;3;5;48;;;;;;;;;;;;1;;;;4.08;0;;;
HAR09;2018;12;4;3;10;41;;;;;;;;;;;;1;;;;4.08;0;;;
HAR09;2018;12;4;3;10;42;;;;;;;;;;;;1;;;;4.08;0;;;
HAR09;2018;12;4;3;15;40;;;;;;;;;;;;1;;;;4.08;0;;;
HAR09;2018;12;4;3;15;45;;;;;;;;;;;;1;;;;4.08;0;;;
HAR09;2018;12;4;3;15;46;;;;;;;;;;;;1;;;;4.08;0;;;
HAR09;2018;12;4;3;15;47;;;;;;;;;;;;1;;;;4.08;0;;;
HAR09;2018;12;4;3;16;0;-37.854217;77.523817;0.3;15;4.08;23;;;;;;;;3751253S;07731429E;;0;;;
HAR09;2018;12;4;3;21;7;;;;;;;;;;;;1;;;;4.08;0;;;
HAR09;2018;12;4;3;21;8;;;;;;;;;;;;1;;;;4.08;0;;;
HAR09;2018;12;4;3;26;1;;;;;;;;;;;;1;;;;4.08;0;;;
HAR09;2018;12;4;3;26;2;;;;;;;;;;;;1;;;;4.08;0;;;
HAR09;2018;12;4;3;30;58;;;;;;;;;;;;1;;;;4.08;0;;;
HAR09;2018;12;4;3;30;59;;;;;;;;;;;;1;;;;4.08;0;;;
HAR09;2018;12;4;3;31;0;-37.854333;77.523800;0.3;14;4.08;23.5;;;;;;;;3751260S;07731428E;;0;;;
HAR09;2018;12;4;3;31;5;;;;;;;;;;;;1;;;;4.08;0;;;
HAR09;2018;12;4;3;31;6;;;;;;;;;;;;1;;;;4.08;0;;;
HAR09;2018;12;4;3;31;7;;;;;;;;;;;;1;;;;4.08;0;;;
HAR09;2018;12;4;3;36;28;;;;;;;;;;;;1;;;;4.08;0;;;
HAR09;2018;12;4;3;36;29;;;;;;;;;;;;1;;;;4.08;0;;;
HAR09;2018;12;4;3;41;22;;;;;;;;;;;;1;;;;4.08;0;;;
HAR09;2018;12;4;3;41;23;;;;;;;;;;;;1;;;;4.08;0;;;
HAR09;2018;12;4;3;46;0;-37.854233;77.523867;0.4;9;4.08;24;;;;;;;;3751254S;07731432E;;0;;;
HAR09;2018;12;4;3;46;19;;;;;;;;;;;;1;;;;4.08;0;;;
HAR09;2018;12;4;3;46;20;;;;;;;;;;;;1;;;;4.08;0;;;
HAR09;2018;12;4;3;46;26;;;;;;;;;;;;1;;;;4.08;0;;;
HAR09;2018;12;4;3;46;27;;;;;;;;;;;;1;;;;4.08;0;;;
HAR09;2018;12;4;3;46;28;;;;;;;;;;;;1;;;;4.08;0;;;
HAR09;2018;12;4;3;51;41;;;;;;;;;;;;1;;;;4.08;0;;;
HAR09;2018;12;4;3;51;42;;;;;;;;;;;;1;;;;4.08;0;;;
HAR09;2018;12;4;3;56;35;;;;;;;;;;;;1;;;;4.08;0;;;
HAR09;2018;12;4;3;56;36;;;;;;;;;;;;1;;;;4.08;0;;;
HAR09;2018;12;4;4;1;33;;;;;;;;;;;;1;;;;4.08;0;;;
HAR09;2018;12;4;4;1;34;;;;;;;;;;;;1;;;;4.08;0;;;
HAR09;2018;12;4;4;1;39;;;;;;;;;;;;1;;;;4.08;0;;;
HAR09;2018;12;4;4;1;40;;;;;;;;;;;;1;;;;4.08;0;;;
HAR09;2018;12;4;4;1;41;;;;;;;;;;;;1;;;;4.08;0;;;
HAR09;2018;12;4;4;2;0;-37.854850;77.523467;0.2;10;4.08;24.5;;;;;;;;3751291S;07731408E;;0;;;
HAR09;2018;12;4;4;6;59;;;;;;;;;;;;1;;;;4.08;0;;;
HAR09;2018;12;4;4;7;0;;;;;;;;;;;;1;;;;4.08;0;;;
HAR09;2018;12;4;4;11;54;;;;;;;;;;;;1;;;;4.08;0;;;
HAR09;2018;12;4;4;11;55;;;;;;;;;;;;1;;;;4.08;0;;;
HAR09;2018;12;4;4;16;52;;;;;;;;;;;;1;;;;4.08;0;;;
HAR09;2018;12;4;4;16;53;;;;;;;;;;;;1;;;;4.08;0;;;
HAR09;2018;12;4;4;16;58;;;;;;;;;;;;1;;;;4.08;0;;;
HAR09;2018;12;4;4;16;59;;;;;;;;;;;;1;;;;4.08;0;;;
HAR09;2018;12;4;4;17;0;-37.854433;77.523767;0.1;13;4.08;28;;;;;;;;3751266S;07731426E;;0;;;
HAR09;2018;12;4;4;17;0;;;;;;;;;;;;1;;;;4.08;0;;;
HAR09;2018;12;4;4;22;18;;;;;;;;;;;;1;;;;4.08;0;;;
HAR09;2018;12;4;4;22;19;;;;;;;;;;;;1;;;;4.08;0;;;
HAR09;2018;12;4;4;27;13;;;;;;;;;;;;1;;;;4.08;0;;;
HAR09;2018;12;4;4;27;14;;;;;;;;;;;;1;;;;4.08;0;;;
HAR09;2018;12;4;4;32;0;-37.854850;77.523867;0.0;16;4.08;32.5;;;;;;;;3751291S;07731432E;;0;;;
HAR09;2018;12;4;4;32;10;;;;;;;;;;;;1;;;;4.08;0;;;
HAR09;2018;12;4;4;32;11;;;;;;;;;;;;1;;;;4.08;0;;;
HAR09;2018;12;4;4;32;17;;;;;;;;;;;;1;;;;4.08;0;;;
HAR09;2018;12;4;4;32;18;;;;;;;;;;;;1;;;;4.08;0;;;
HAR09;2018;12;4;4;32;19;;;;;;;;;;;;1;;;;4.08;0;;;
HAR09;2018;12;4;4;37;42;;;;;;;;;;;;1;;;;4.08;0;;;
HAR09;2018;12;4;4;37;43;;;;;;;;;;;;1;;;;4.08;0;;;
HAR09;2018;12;4;4;42;36;;;;;;;;;;;;1;;;;4.08;0;;;
HAR09;2018;12;4;4;42;37;;;;;;;;;;;;1;;;;4.08;0;;;
HAR09;2018;12;4;4;47;0;-37.855117;77.523217;0.1;8;4.08;30.5;;;;;;;;3751307S;07731393E;;0;;;
HAR09;2018;12;4;4;47;33;;;;;;;;;;;;1;;;;4.08;0;;;
HAR09;2018;12;4;4;47;34;;;;;;;;;;;;1;;;;4.08;0;;;
HAR09;2018;12;4;4;47;40;;;;;;;;;;;;1;;;;4.08;0;;;
HAR09;2018;12;4;4;47;41;;;;;;;;;;;;1;;;;4.08;0;;;
HAR09;2018;12;4;4;47;42;;;;;;;;;;;;1;;;;4.08;0;;;
HAR09;2018;12;4;4;52;55;;;;;;;;;;;;1;;;;4.08;0;;;
HAR09;2018;12;4;4;52;56;;;;;;;;;;;;1;;;;4.08;0;;;
HAR09;2018;12;4;4;57;49;;;;;;;;;;;;1;;;;4.08;0;;;
HAR09;2018;12;4;4;57;50;;;;;;;;;;;;1;;;;4.08;0;;;
HAR09;2018;12;4;5;2;46;;;;;;;;;;;;1;;;;4.08;0;;;
HAR09;2018;12;4;5;2;47;;;;;;;;;;;;1;;;;4.08;0;;;
HAR09;2018;12;4;5;2;53;;;;;;;;;;;;1;;;;4.08;0;;;
HAR09;2018;12;4;5;2;54;;;;;;;;;;;;1;;;;4.08;0;;;
HAR09;2018;12;4;5;2;55;;;;;;;;;;;;1;;;;4.08;0;;;
HAR09;2018;12;4;5;3;0;-37.854350;77.523733;0.3;15;4.08;23;;;;;;;;3751261S;07731424E;;0;;;
HAR09;2018;12;4;5;8;14;;;;;;;;;;;;1;;;;4.08;0;;;
HAR09;2018;12;4;5;8;15;;;;;;;;;;;;1;;;;4.08;0;;;
HAR09;2018;12;4;5;13;9;;;;;;;;;;;;1;;;;4.08;0;;;
HAR09;2018;12;4;5;13;10;;;;;;;;;;;;1;;;;4.08;0;;;
HAR09;2018;12;4;5;18;0;-37.850467;77.497700;0.2;6;4.09;22;;;;;;;;3751028S;07729862E;;0;;;
HAR09;2018;12;4;5;33;0;-37.868667;77.537583;18.;15;4.1;18.5;;;;;;;;3752120S;07732255E;;0;;;
HAR09;2018;12;4;5;38;50;;;;;;;;;;;;1;;;;4.1;0;;;
HAR09;2018;12;4;5;38;51;;;;;;;;;;;;1;;;;4.1;0;;;
HAR09;2018;12;4;5;43;44;;;;;;;;;;;;1;;;;4.1;0;;;
HAR09;2018;12;4;5;43;45;;;;;;;;;;;;1;;;;4.1;0;;;
HAR09;2018;12;4;5;48;41;;;;;;;;;;;;1;;;;4.1;0;;;
HAR09;2018;12;4;5;48;42;;;;;;;;;;;;1;;;;4.1;0;;;
HAR09;2018;12;4;5;48;48;;;;;;;;;;;;1;;;;4.1;0;;;
HAR09;2018;12;4;5;48;49;;;;;;;;;;;;1;;;;4.09;0;;;
HAR09;2018;12;4;5;48;50;;;;;;;;;;;;1;;;;4.1;0;;;
HAR09;2018;12;4;5;49;0;-37.854550;77.524433;0.8;20;4.1;22;;;;;;;;3751273S;07731466E;;0;;;
HAR09;2018;12;4;5;54;14;;;;;;;;;;;;1;;;;4.09;0;;;
HAR09;2018;12;4;5;54;15;;;;;;;;;;;;1;;;;4.09;0;;;
HAR09;2018;12;4;5;59;9;;;;;;;;;;;;1;;;;4.1;0;;;
HAR09;2018;12;4;5;59;10;;;;;;;;;;;;1;;;;4.09;0;;;
HAR09;2018;12;4;6;4;0;-37.854383;77.524600;0.4;20;4.09;28;;;;;;;;3751263S;07731476E;;0;;;
HAR09;2018;12;4;6;4;7;;;;;;;;;;;;1;;;;4.1;0;;;
HAR09;2018;12;4;6;4;8;;;;;;;;;;;;1;;;;4.09;0;;;
HAR09;2018;12;4;6;4;14;;;;;;;;;;;;1;;;;4.09;0;;;
HAR09;2018;12;4;6;4;15;;;;;;;;;;;;1;;;;4.09;0;;;
HAR09;2018;12;4;6;9;43;;;;;;;;;;;;1;;;;4.09;0;;;
HAR09;2018;12;4;6;19;33;;;;;;;;;;;;1;;;;4.09;0;;;
HAR09;2018;12;4;6;19;34;;;;;;;;;;;;1;;;;4.09;0;;;
HAR09;2018;12;4;6;19;40;;;;;;;;;;;;1;;;;4.09;0;;;
HAR09;2018;12;4;6;19;41;;;;;;;;;;;;1;;;;4.09;0;;;
HAR09;2018;12;4;6;19;42;;;;;;;;;;;;1;;;;4.09;0;;;
HAR09;2018;12;4;6;20;0;-37.854267;77.524767;0.7;15;4.09;35.5;;;;;;;;3751256S;07731486E;;0;;;
HAR09;2018;12;4;6;25;2;;;;;;;;;;;;1;;;;4.09;0;;;
HAR09;2018;12;4;6;25;3;;;;;;;;;;;;1;;;;4.09;0;;;
HAR09;2018;12;4;6;34;55;;;;;;;;;;;;1;;;;4.09;0;;;
HAR09;2018;12;4;6;35;0;-37.857350;77.519250;0.3;12;4.09;34.5;;;;;;;;3751441S;07731155E;;0;;;
HAR09;2018;12;4;6;35;2;;;;;;;;;;;;1;;;;4.09;0;;;
HAR09;2018;12;4;6;35;5;;;;;;;;;;;;1;;;;4.09;0;;;
HAR09;2018;12;4;6;40;22;;;;;;;;;;;;1;;;;4.1;0;;;
HAR09;2018;12;4;6;40;23;;;;;;;;;;;;1;;;;4.1;0;;;
HAR09;2018;12;4;6;45;17;;;;;;;;;;;;1;;;;4.1;0;;;
HAR09;2018;12;4;6;45;18;;;;;;;;;;;;1;;;;4.1;0;;;
HAR09;2018;12;4;6;50;0;-37.854117;77.525233;0.4;21;4.1;35.5;;;;;;;;3751247S;07731514E;;0;;;
HAR09;2018;12;4;6;50;14;;;;;;;;;;;;1;;;;4.1;0;;;
HAR09;2018;12;4;6;50;15;;;;;;;;;;;;1;;;;4.1;0;;;
HAR09;2018;12;4;6;50;21;;;;;;;;;;;;1;;;;4.1;0;;;
HAR09;2018;12;4;6;50;22;;;;;;;;;;;;1;;;;4.1;0;;;
HAR09;2018;12;4;6;50;23;;;;;;;;;;;;1;;;;4.1;0;;;
HAR09;2018;12;4;6;55;49;;;;;;;;;;;;1;;;;4.09;0;;;
HAR09;2018;12;4;6;55;50;;;;;;;;;;;;1;;;;4.09;0;;;
HAR09;2018;12;4;7;0;44;;;;;;;;;;;;1;;;;4.1;0;;;
HAR09;2018;12;4;7;0;45;;;;;;;;;;;;1;;;;4.1;0;;;
HAR09;2018;12;4;7;5;41;;;;;;;;;;;;1;;;;4.1;0;;;
HAR09;2018;12;4;7;5;42;;;;;;;;;;;;1;;;;4.1;0;;;
HAR09;2018;12;4;7;5;48;;;;;;;;;;;;1;;;;4.1;0;;;
HAR09;2018;12;4;7;5;49;;;;;;;;;;;;1;;;;4.1;0;;;
HAR09;2018;12;4;7;5;50;;;;;;;;;;;;1;;;;4.1;0;;;
HAR09;2018;12;4;7;6;0;-37.854417;77.524183;0.3;16;4.1;34;;;;;;;;3751265S;07731451E;;0;;;
HAR09;2018;12;4;7;11;10;;;;;;;;;;;;1;;;;4.1;0;;;
HAR09;2018;12;4;7;11;11;;;;;;;;;;;;1;;;;4.1;0;;;
HAR09;2018;12;4;7;16;5;;;;;;;;;;;;1;;;;4.1;0;;;
HAR09;2018;12;4;7;16;6;;;;;;;;;;;;1;;;;4.1;0;;;
HAR09;2018;12;4;7;21;0;-37.854083;77.523050;1.0;11;4.1;34;;;;;;;;3751245S;07731383E;;0;;;
HAR09;2018;12;4;7;21;2;;;;;;;;;;;;1;;;;4.1;0;;;
HAR09;2018;12;4;7;21;3;;;;;;;;;;;;1;;;;4.1;0;;;
HAR09;2018;12;4;7;21;9;;;;;;;;;;;;1;;;;4.1;0;;;
HAR09;2018;12;4;7;21;10;;;;;;;;;;;;1;;;;4.1;0;;;
HAR09;2018;12;4;7;21;11;;;;;;;;;;;;1;;;;4.1;0;;;
HAR09;2018;12;4;7;26;28;;;;;;;;;;;;1;;;;4.1;0;;;
HAR09;2018;12;4;7;26;29;;;;;;;;;;;;1;;;;4.1;0;;;
HAR09;2018;12;4;7;31;22;;;;;;;;;;;;1;;;;4.1;0;;;
HAR09;2018;12;4;7;31;23;;;;;;;;;;;;1;;;;4.1;0;;;
HAR09;2018;12;4;7;36;0;-37.857717;77.524917;0.2;15;4.1;24.5;;;;;;;;3751463S;07731495E;;0;;;
HAR09;2018;12;4;7;36;19;;;;;;;;;;;;1;;;;4.1;0;;;
HAR09;2018;12;4;7;36;20;;;;;;;;;;;;1;;;;4.1;0;;;
HAR09;2018;12;4;7;36;26;;;;;;;;;;;;1;;;;4.1;0;;;
HAR09;2018;12;4;7;36;27;;;;;;;;;;;;1;;;;4.1;0;;;
HAR09;2018;12;4;7;36;28;;;;;;;;;;;;1;;;;4.1;0;;;
HAR09;2018;12;4;7;41;50;;;;;;;;;;;;1;;;;4.1;0;;;
HAR09;2018;12;4;7;41;51;;;;;;;;;;;;1;;;;4.1;0;;;
HAR09;2018;12;4;7;46;45;;;;;;;;;;;;1;;;;4.1;0;;;
HAR09;2018;12;4;7;46;46;;;;;;;;;;;;1;;;;4.1;0;;;
HAR09;2018;12;4;7;51;43;;;;;;;;;;;;1;;;;4.1;0;;;
HAR09;2018;12;4;7;51;44;;;;;;;;;;;;1;;;;4.1;0;;;
HAR09;2018;12;4;7;51;49;;;;;;;;;;;;1;;;;4.1;0;;;
HAR09;2018;12;4;7;51;50;;;;;;;;;;;;1;;;;4.1;0;;;
HAR09;2018;12;4;7;51;51;;;;;;;;;;;;1;;;;4.1;0;;;
HAR09;2018;12;4;7;52;0;-37.853467;77.524917;0.3;15;4.1;32;;;;;;;;3751208S;07731495E;;0;;;
HAR09;2018;12;4;7;57;12;;;;;;;;;;;;1;;;;4.1;0;;;
HAR09;2018;12;4;7;57;13;;;;;;;;;;;;1;;;;4.1;0;;;
HAR09;2018;12;4;8;2;6;;;;;;;;;;;;1;;;;4.1;0;;;
HAR09;2018;12;4;8;2;7;;;;;;;;;;;;1;;;;4.1;0;;;
HAR09;2018;12;4;8;7;0;-37.853733;77.525100;0.3;26;4.1;35;;;;;;;;3751224S;07731506E;;0;;;
HAR09;2018;12;4;8;7;3;;;;;;;;;;;;1;;;;4.1;0;;;
HAR09;2018;12;4;8;7;4;;;;;;;;;;;;1;;;;4.1;0;;;
HAR09;2018;12;4;8;7;10;;;;;;;;;;;;1;;;;4.1;0;;;
HAR09;2018;12;4;8;7;11;;;;;;;;;;;;1;;;;4.1;0;;;
HAR09;2018;12;4;8;7;12;;;;;;;;;;;;1;;;;4.1;0;;;
HAR09;2018;12;4;8;12;43;;;;;;;;;;;;1;;;;4.1;0;;;
HAR09;2018;12;4;8;12;44;;;;;;;;;;;;1;;;;4.1;0;;;
HAR09;2018;12;4;8;17;38;;;;;;;;;;;;1;;;;4.1;0;;;
HAR09;2018;12;4;8;17;39;;;;;;;;;;;;1;;;;4.1;0;;;
HAR09;2018;12;4;8;22;0;-37.853083;77.526250;0.9;7;4.1;35.5;;;;;;;;3751185S;07731575E;;0;;;
HAR09;2018;12;4;8;22;36;;;;;;;;;;;;1;;;;4.1;0;;;
HAR09;2018;12;4;8;22;37;;;;;;;;;;;;1;;;;4.1;0;;;
HAR09;2018;12;4;8;22;42;;;;;;;;;;;;1;;;;4.1;0;;;
HAR09;2018;12;4;8;22;43;;;;;;;;;;;;1;;;;4.1;0;;;
HAR09;2018;12;4;8;22;44;;;;;;;;;;;;1;;;;4.1;0;;;
HAR09;2018;12;4;8;27;58;;;;;;;;;;;;1;;;;4.1;0;;;
HAR09;2018;12;4;8;27;59;;;;;;;;;;;;1;;;;4.1;0;;;
HAR09;2018;12;4;8;32;52;;;;;;;;;;;;1;;;;4.1;0;;;
HAR09;2018;12;4;8;32;53;;;;;;;;;;;;1;;;;4.1;0;;;
HAR09;2018;12;4;8;37;49;;;;;;;;;;;;1;;;;4.1;0;;;
HAR09;2018;12;4;8;37;50;;;;;;;;;;;;1;;;;4.1;0;;;
HAR09;2018;12;4;8;37;56;;;;;;;;;;;;1;;;;4.1;0;;;
HAR09;2018;12;4;8;37;57;;;;;;;;;;;;1;;;;4.1;0;;;
HAR09;2018;12;4;8;37;58;;;;;;;;;;;;1;;;;4.1;0;;;
HAR09;2018;12;4;8;38;0;-37.853500;77.525767;0.8;11;4.1;35.5;;;;;;;;3751210S;07731546E;;0;;;
HAR09;2018;12;4;8;43;15;;;;;;;;;;;;1;;;;4.1;0;;;
HAR09;2018;12;4;8;43;16;;;;;;;;;;;;1;;;;4.1;0;;;
HAR09;2018;12;4;8;48;10;;;;;;;;;;;;1;;;;4.1;0;;;
HAR09;2018;12;4;8;48;11;;;;;;;;;;;;1;;;;4.1;0;;;
HAR09;2018;12;4;8;53;0;-37.856983;77.527567;0.6;15;4.1;33.5;;;;;;;;3751419S;07731654E;;0;;;
HAR09;2018;12;4;8;53;7;;;;;;;;;;;;1;;;;4.1;0;;;
HAR09;2018;12;4;8;53;8;;;;;;;;;;;;1;;;;4.1;0;;;
HAR09;2018;12;4;8;53;14;;;;;;;;;;;;1;;;;4.1;0;;;
HAR09;2018;12;4;8;53;15;;;;;;;;;;;;1;;;;4.1;0;;;
HAR09;2018;12;4;8;53;16;;;;;;;;;;;;1;;;;4.1;0;;;
HAR09;2018;12;4;8;58;36;;;;;;;;;;;;1;;;;4.1;0;;;
HAR09;2018;12;4;8;58;37;;;;;;;;;;;;1;;;;4.1;0;;;
HAR09;2018;12;4;9;3;30;;;;;;;;;;;;1;;;;4.1;0;;;
HAR09;2018;12;4;9;3;31;;;;;;;;;;;;1;;;;4.1;0;;;
HAR09;2018;12;4;9;8;0;-37.855167;77.524300;0.0;14;4.1;32.5;;;;;;;;3751310S;07731458E;;0;;;
HAR09;2018;12;4;9;8;27;;;;;;;;;;;;1;;;;4.1;0;;;
HAR09;2018;12;4;9;8;28;;;;;;;;;;;;1;;;;4.1;0;;;
HAR09;2018;12;4;9;8;34;;;;;;;;;;;;1;;;;4.1;0;;;
HAR09;2018;12;4;9;8;35;;;;;;;;;;;;1;;;;4.1;0;;;
HAR09;2018;12;4;9;8;36;;;;;;;;;;;;1;;;;4.1;0;;;
HAR09;2018;12;4;9;13;55;;;;;;;;;;;;1;;;;4.1;0;;;
HAR09;2018;12;4;9;13;56;;;;;;;;;;;;1;;;;4.1;0;;;
HAR09;2018;12;4;9;18;50;;;;;;;;;;;;1;;;;4.1;0;;;
HAR09;2018;12;4;9;18;51;;;;;;;;;;;;1;;;;4.1;0;;;
HAR09;2018;12;4;9;23;48;;;;;;;;;;;;1;;;;4.11;0;;;
HAR09;2018;12;4;9;23;49;;;;;;;;;;;;1;;;;4.11;0;;;
HAR09;2018;12;4;9;23;54;;;;;;;;;;;;1;;;;4.11;0;;;
HAR09;2018;12;4;9;23;55;;;;;;;;;;;;1;;;;4.11;0;;;
HAR09;2018;12;4;9;23;56;;;;;;;;;;;;1;;;;4.11;0;;;
HAR09;2018;12;4;9;24;0;-37.853517;77.523533;0.3;14;4.11;34.5;;;;;;;;3751211S;07731412E;;0;;;
HAR09;2018;12;4;9;29;16;;;;;;;;;;;;1;;;;4.1;0;;;
HAR09;2018;12;4;9;29;17;;;;;;;;;;;;1;;;;4.11;0;;;
HAR09;2018;12;4;9;39;0;-37.856000;77.502483;23.;10;4.11;21.5;;;;;;;;3751360S;07730149E;;0;;;
HAR09;2018;12;4;9;39;18;;;;;;;;;;;;1;;;;4.11;0;;;
HAR09;2018;12;4;9;54;26;;;;;;;;;;;;1;;;;4.12;0;;;
HAR09;2018;12;4;9;54;27;;;;;;;;;;;;1;;;;4.12;0;;;
HAR09;2018;12;4;9;54;33;;;;;;;;;;;;1;;;;4.12;0;;;
HAR09;2018;12;4;9;54;34;;;;;;;;;;;;1;;;;4.12;0;;;
HAR09;2018;12;4;9;54;35;;;;;;;;;;;;1;;;;4.12;0;;;
HAR09;2018;12;4;9;55;0;-37.853983;77.523900;0.1;25;4.12;17.5;;;;;;;;3751239S;07731434E;;0;;;
HAR09;2018;12;4;10;0;5;;;;;;;;;;;;1;;;;4.12;0;;;
HAR09;2018;12;4;10;0;6;;;;;;;;;;;;1;;;;4.12;0;;;
HAR09;2018;12;4;10;5;0;;;;;;;;;;;;1;;;;4.12;0;;;
HAR09;2018;12;4;10;5;1;;;;;;;;;;;;1;;;;4.12;0;;;
HAR09;2018;12;4;10;9;57;;;;;;;;;;;;1;;;;4.12;0;;;
HAR09;2018;12;4;10;9;58;;;;;;;;;;;;1;;;;4.12;0;;;
HAR09;2018;12;4;10;10;0;-37.852250;77.524183;0.1;20;4.12;26.5;;;;;;;;3751135S;07731451E;;0;;;
HAR09;2018;12;4;10;10;4;;;;;;;;;;;;1;;;;4.12;0;;;
HAR09;2018;12;4;10;10;5;;;;;;;;;;;;1;;;;4.12;0;;;
HAR09;2018;12;4;10;10;6;;;;;;;;;;;;1;;;;4.12;0;;;
HAR09;2018;12;4;10;15;31;;;;;;;;;;;;1;;;;4.12;0;;;
HAR09;2018;12;4;10;15;33;;;;;;;;;;;;1;;;;4.12;0;;;
HAR09;2018;12;4;10;20;26;;;;;;;;;;;;1;;;;4.12;0;;;
HAR09;2018;12;4;10;20;27;;;;;;;;;;;;1;;;;4.12;0;;;
HAR09;2018;12;4;10;25;0;-37.850533;77.524850;0.5;18;4.12;29.5;;;;;;;;3751032S;07731491E;;0;;;
HAR09;2018;12;4;10;25;24;;;;;;;;;;;;1;;;;4.12;0;;;
HAR09;2018;12;4;10;25;25;;;;;;;;;;;;1;;;;4.12;0;;;
HAR09;2018;12;4;10;25;30;;;;;;;;;;;;1;;;;4.12;0;;;
HAR09;2018;12;4;10;25;31;;;;;;;;;;;;1;;;;4.12;0;;;
HAR09;2018;12;4;10;25;32;;;;;;;;;;;;1;;;;4.12;0;;;
HAR09;2018;12;4;10;30;57;;;;;;;;;;;;1;;;;4.12;0;;;
HAR09;2018;12;4;10;30;58;;;;;;;;;;;;1;;;;4.12;0;;;
HAR09;2018;12;4;10;35;51;;;;;;;;;;;;1;;;;4.12;0;;;
HAR09;2018;12;4;10;35;52;;;;;;;;;;;;1;;;;4.12;0;;;
HAR09;2018;12;4;10;40;49;;;;;;;;;;;;1;;;;4.12;0;;;
HAR09;2018;12;4;10;40;50;;;;;;;;;;;;1;;;;4.12;0;;;
HAR09;2018;12;4;10;40;55;;;;;;;;;;;;1;;;;4.12;0;;;
HAR09;2018;12;4;10;40;56;;;;;;;;;;;;1;;;;4.12;0;;;
HAR09;2018;12;4;10;40;57;;;;;;;;;;;;1;;;;4.12;0;;;
HAR09;2018;12;4;10;41;0;-37.852600;77.524567;0.4;12;4.12;25.5;;;;;;;;3751156S;07731474E;;0;;;
HAR09;2018;12;4;10;46;15;;;;;;;;;;;;1;;;;4.12;0;;;
HAR09;2018;12;4;10;46;16;;;;;;;;;;;;1;;;;4.12;0;;;
HAR09;2018;12;4;10;51;10;;;;;;;;;;;;1;;;;4.12;0;;;
HAR09;2018;12;4;10;51;11;;;;;;;;;;;;1;;;;4.12;0;;;
HAR09;2018;12;4;10;56;0;-37.853283;77.525450;0.1;14;4.12;25.5;;;;;;;;3751197S;07731527E;;0;;;
HAR09;2018;12;4;10;56;7;;;;;;;;;;;;1;;;;4.12;0;;;
HAR09;2018;12;4;10;56;8;;;;;;;;;;;;1;;;;4.12;0;;;
HAR09;2018;12;4;10;56;14;;;;;;;;;;;;1;;;;4.12;0;;;
HAR09;2018;12;4;10;56;15;;;;;;;;;;;;1;;;;4.12;0;;;
HAR09;2018;12;4;10;56;17;;;;;;;;;;;;1;;;;4.12;0;;;
HAR09;2018;12;4;11;1;36;;;;;;;;;;;;1;;;;4.12;0;;;
HAR09;2018;12;4;11;1;37;;;;;;;;;;;;1;;;;4.12;0;;;
HAR09;2018;12;4;11;6;30;;;;;;;;;;;;1;;;;4.12;0;;;
HAR09;2018;12;4;11;6;31;;;;;;;;;;;;1;;;;4.12;0;;;
HAR09;2018;12;4;11;11;0;-37.853417;77.525950;0.7;11;4.12;22;;;;;;;;3751205S;07731557E;;0;;;
HAR09;2018;12;4;11;11;27;;;;;;;;;;;;1;;;;4.12;0;;;
HAR09;2018;12;4;11;11;28;;;;;;;;;;;;1;;;;4.12;0;;;
HAR09;2018;12;4;11;11;34;;;;;;;;;;;;1;;;;4.12;0;;;
HAR09;2018;12;4;11;11;35;;;;;;;;;;;;1;;;;4.12;0;;;
HAR09;2018;12;4;11;11;36;;;;;;;;;;;;1;;;;4.12;0;;;
HAR09;2018;12;4;11;16;54;;;;;;;;;;;;1;;;;4.12;0;;;
HAR09;2018;12;4;11;16;55;;;;;;;;;;;;1;;;;4.12;0;;;
HAR09;2018;12;4;11;21;48;;;;;;;;;;;;1;;;;4.12;0;;;
HAR09;2018;12;4;11;21;49;;;;;;;;;;;;1;;;;4.12;0;;;
HAR09;2018;12;4;11;26;46;;;;;;;;;;;;1;;;;4.12;0;;;
HAR09;2018;12;4;11;26;47;;;;;;;;;;;;1;;;;4.12;0;;;
HAR09;2018;12;4;11;26;52;;;;;;;;;;;;1;;;;4.12;0;;;
HAR09;2018;12;4;11;26;53;;;;;;;;;;;;1;;;;4.12;0;;;
HAR09;2018;12;4;11;26;54;;;;;;;;;;;;1;;;;4.12;0;;;
HAR09;2018;12;4;11;27;0;-37.854033;77.525550;0.4;14;4.12;24;;;;;;;;3751242S;07731533E;;0;;;
HAR09;2018;12;4;11;32;14;;;;;;;;;;;;1;;;;4.12;0;;;
HAR09;2018;12;4;11;32;15;;;;;;;;;;;;1;;;;4.12;0;;;
HAR09;2018;12;4;11;37;9;;;;;;;;;;;;1;;;;4.12;0;;;
HAR09;2018;12;4;11;37;10;;;;;;;;;;;;1;;;;4.12;0;;;
HAR09;2018;12;4;11;42;6;;;;;;;;;;;;1;;;;4.12;0;;;
HAR09;2018;12;4;11;42;7;;;;;;;;;;;;1;;;;4.12;0;;;
HAR09;2018;12;4;11;42;13;;;;;;;;;;;;1;;;;4.12;0;;;
HAR09;2018;12;4;11;42;14;;;;;;;;;;;;1;;;;4.12;0;;;
HAR09;2018;12;4;11;42;15;;;;;;;;;;;;1;;;;4.12;0;;;
HAR09;2018;12;4;11;43;0;-37.854483;77.523800;0.4;41;4.12;24.5;;;;;;;;3751269S;07731428E;;0;;;
HAR09;2018;12;4;11;58;0;-37.851167;77.513250;19.;6;4.12;16;;;;;;;;3751070S;07730795E;;0;;;
HAR09;2018;12;4;12;3;13;;;;;;;;;;;;1;;;;4.12;0;;;
HAR09;2018;12;4;12;3;14;;;;;;;;;;;;1;;;;4.12;0;;;
HAR09;2018;12;4;12;8;7;;;;;;;;;;;;1;;;;4.12;0;;;
HAR09;2018;12;4;12;8;8;;;;;;;;;;;;1;;;;4.12;0;;;
HAR09;2018;12;4;12;13;0;-37.854450;77.523783;0.6;8;4.12;14.5;;;;;;;;3751267S;07731427E;;0;;;
HAR09;2018;12;4;12;13;5;;;;;;;;;;;;1;;;;4.12;0;;;
HAR09;2018;12;4;12;13;6;;;;;;;;;;;;1;;;;4.12;0;;;
HAR09;2018;12;4;12;13;11;;;;;;;;;;;;1;;;;4.12;0;;;
HAR09;2018;12;4;12;13;13;;;;;;;;;;;;1;;;;4.12;0;;;
HAR09;2018;12;4;12;18;27;;;;;;;;;;;;1;;;;4.12;0;;;
HAR09;2018;12;4;12;18;28;;;;;;;;;;;;1;;;;4.12;0;;;
HAR09;2018;12;4;12;23;22;;;;;;;;;;;;1;;;;4.12;0;;;
HAR09;2018;12;4;12;23;23;;;;;;;;;;;;1;;;;4.12;0;;;
HAR09;2018;12;4;12;28;19;;;;;;;;;;;;1;;;;4.12;0;;;
HAR09;2018;12;4;12;28;20;;;;;;;;;;;;1;;;;4.12;0;;;
HAR09;2018;12;4;12;28;26;;;;;;;;;;;;1;;;;4.12;0;;;
HAR09;2018;12;4;12;28;27;;;;;;;;;;;;1;;;;4.12;0;;;
HAR09;2018;12;4;12;28;28;;;;;;;;;;;;1;;;;4.12;0;;;
HAR09;2018;12;4;12;29;0;-37.854700;77.523817;0.1;26;4.12;21;;;;;;;;3751282S;07731429E;;0;;;
HAR09;2018;12;4;12;33;58;;;;;;;;;;;;1;;;;4.12;0;;;
HAR09;2018;12;4;12;33;59;;;;;;;;;;;;1;;;;4.12;0;;;
HAR09;2018;12;4;12;38;53;;;;;;;;;;;;1;;;;4.12;0;;;
HAR09;2018;12;4;12;38;54;;;;;;;;;;;;1;;;;4.12;0;;;
HAR09;2018;12;4;12;43;50;;;;;;;;;;;;1;;;;4.12;0;;;
HAR09;2018;12;4;12;43;51;;;;;;;;;;;;1;;;;4.12;0;;;
HAR09;2018;12;4;12;43;57;;;;;;;;;;;;1;;;;4.12;0;;;
HAR09;2018;12;4;12;43;58;;;;;;;;;;;;1;;;;4.12;0;;;
HAR09;2018;12;4;12;43;59;;;;;;;;;;;;1;;;;4.12;0;;;
HAR09;2018;12;4;12;44;0;-37.853983;77.523683;0.6;7;4.12;28;;;;;;;;3751239S;07731421E;;0;;;
HAR09;2018;12;4;12;49;13;;;;;;;;;;;;1;;;;4.12;0;;;
HAR09;2018;12;4;12;49;14;;;;;;;;;;;;1;;;;4.12;0;;;
HAR09;2018;12;4;12;54;7;;;;;;;;;;;;1;;;;4.12;0;;;
HAR09;2018;12;4;12;54;8;;;;;;;;;;;;1;;;;4.12;0;;;
HAR09;2018;12;4;12;59;0;-37.853833;77.523733;0.6;7;4.12;29;;;;;;;;3751230S;07731424E;;0;;;
HAR09;2018;12;4;12;59;4;;;;;;;;;;;;1;;;;4.12;0;;;
HAR09;2018;12;4;12;59;5;;;;;;;;;;;;1;;;;4.12;0;;;
HAR09;2018;12;4;12;59;11;;;;;;;;;;;;1;;;;4.12;0;;;
HAR09;2018;12;4;12;59;12;;;;;;;;;;;;1;;;;4.12;0;;;
HAR09;2018;12;4;12;59;13;;;;;;;;;;;;1;;;;4.12;0;;;
HAR09;2018;12;4;13;4;26;;;;;;;;;;;;1;;;;4.12;0;;;
HAR09;2018;12;4;13;4;27;;;;;;;;;;;;1;;;;4.12;0;;;
HAR09;2018;12;4;13;9;20;;;;;;;;;;;;1;;;;4.12;0;;;
HAR09;2018;12;4;13;9;21;;;;;;;;;;;;1;;;;4.12;0;;;
HAR09;2018;12;4;13;14;0;-37.853783;77.523933;0.3;6;4.12;27;;;;;;;;3751227S;07731436E;;0;;;
HAR09;2018;12;4;13;14;17;;;;;;;;;;;;1;;;;4.12;0;;;
HAR09;2018;12;4;13;14;18;;;;;;;;;;;;1;;;;4.12;0;;;
HAR09;2018;12;4;13;14;24;;;;;;;;;;;;1;;;;4.12;0;;;
HAR09;2018;12;4;13;14;25;;;;;;;;;;;;1;;;;4.12;0;;;
HAR09;2018;12;4;13;14;26;;;;;;;;;;;;1;;;;4.12;0;;;
HAR09;2018;12;4;13;19;38;;;;;;;;;;;;1;;;;4.12;0;;;
HAR09;2018;12;4;13;19;39;;;;;;;;;;;;1;;;;4.12;0;;;
HAR09;2018;12;4;13;24;32;;;;;;;;;;;;1;;;;4.12;0;;;
HAR09;2018;12;4;13;24;33;;;;;;;;;;;;1;;;;4.12;0;;;
HAR09;2018;12;4;13;29;0;-37.853767;77.524017;1.6;6;4.12;23.5;;;;;;;;3751226S;07731441E;;0;;;
HAR09;2018;12;4;13;29;29;;;;;;;;;;;;1;;;;4.12;0;;;
HAR09;2018;12;4;13;29;30;;;;;;;;;;;;1;;;;4.12;0;;;
HAR09;2018;12;4;13;29;36;;;;;;;;;;;;1;;;;4.12;0;;;
HAR09;2018;12;4;13;29;37;;;;;;;;;;;;1;;;;4.12;0;;;
HAR09;2018;12;4;13;29;38;;;;;;;;;;;;1;;;;4.12;0;;;
HAR09;2018;12;4;13;34;50;;;;;;;;;;;;1;;;;4.12;0;;;
HAR09;2018;12;4;13;34;51;;;;;;;;;;;;1;;;;4.12;0;;;
HAR09;2018;12;4;13;39;45;;;;;;;;;;;;1;;;;4.12;0;;;
HAR09;2018;12;4;13;39;46;;;;;;;;;;;;1;;;;4.12;0;;;
HAR09;2018;12;4;13;44;42;;;;;;;;;;;;1;;;;4.12;0;;;
HAR09;2018;12;4;13;44;43;;;;;;;;;;;;1;;;;4.12;0;;;
HAR09;2018;12;4;13;44;49;;;;;;;;;;;;1;;;;4.12;0;;;
HAR09;2018;12;4;13;44;50;;;;;;;;;;;;1;;;;4.12;0;;;
HAR09;2018;12;4;13;44;51;;;;;;;;;;;;1;;;;4.12;0;;;
HAR09;2018;12;4;13;45;0;-37.853817;77.524117;0.6;6;4.12;21.5;;;;;;;;3751229S;07731447E;;0;;;
HAR09;2018;12;4;13;50;3;;;;;;;;;;;;1;;;;4.12;0;;;
HAR09;2018;12;4;13;50;4;;;;;;;;;;;;1;;;;4.12;0;;;
HAR09;2018;12;4;13;54;58;;;;;;;;;;;;1;;;;4.12;0;;;
HAR09;2018;12;4;13;54;59;;;;;;;;;;;;1;;;;4.12;0;;;
HAR09;2018;12;4;13;59;56;;;;;;;;;;;;1;;;;4.12;0;;;
HAR09;2018;12;4;14;0;0;-37.854233;77.524000;0.8;8;4.12;19.5;;;;;;;;3751254S;07731440E;;0;;;
HAR09;2018;12;4;14;0;2;;;;;;;;;;;;1;;;;4.12;0;;;
HAR09;2018;12;4;14;0;3;;;;;;;;;;;;1;;;;4.12;0;;;
HAR09;2018;12;4;14;0;4;;;;;;;;;;;;1;;;;4.12;0;;;
HAR09;2018;12;4;14;5;18;;;;;;;;;;;;1;;;;4.12;0;;;
HAR09;2018;12;4;14;5;19;;;;;;;;;;;;1;;;;4.12;0;;;
HAR09;2018;12;4;14;10;12;;;;;;;;;;;;1;;;;4.12;0;;;
HAR09;2018;12;4;14;10;13;;;;;;;;;;;;1;;;;4.12;0;;;
HAR09;2018;12;4;14;15;0;-37.854500;77.523867;0.7;9;4.12;19.5;;;;;;;;3751270S;07731432E;;0;;;
HAR09;2018;12;4;14;15;9;;;;;;;;;;;;1;;;;4.12;0;;;
HAR09;2018;12;4;14;15;10;;;;;;;;;;;;1;;;;4.12;0;;;
HAR09;2018;12;4;14;15;16;;;;;;;;;;;;1;;;;4.12;0;;;
HAR09;2018;12;4;14;15;17;;;;;;;;;;;;1;;;;4.12;0;;;
HAR09;2018;12;4;14;15;18;;;;;;;;;;;;1;;;;4.12;0;;;
HAR09;2018;12;4;14;20;33;;;;;;;;;;;;1;;;;4.12;0;;;
HAR09;2018;12;4;14;20;34;;;;;;;;;;;;1;;;;4.12;0;;;
HAR09;2018;12;4;14;25;28;;;;;;;;;;;;1;;;;4.12;0;;;
HAR09;2018;12;4;14;25;29;;;;;;;;;;;;1;;;;4.12;0;;;
HAR09;2018;12;4;14;30;25;;;;;;;;;;;;1;;;;4.12;0;;;
HAR09;2018;12;4;14;30;26;;;;;;;;;;;;1;;;;4.12;0;;;
HAR09;2018;12;4;14;30;32;;;;;;;;;;;;1;;;;4.12;0;;;
HAR09;2018;12;4;14;30;33;;;;;;;;;;;;1;;;;4.12;0;;;
HAR09;2018;12;4;14;30;34;;;;;;;;;;;;1;;;;4.12;0;;;
HAR09;2018;12;4;14;31;0;-37.854550;77.523850;0.0;38;4.12;18.5;;;;;;;;3751273S;07731431E;;0;;;
HAR09;2018;12;4;14;36;17;;;;;;;;;;;;1;;;;4.11;0;;;
HAR09;2018;12;4;14;36;18;;;;;;;;;;;;1;;;;4.11;0;;;
HAR09;2018;12;4;14;41;12;;;;;;;;;;;;1;;;;4.11;0;;;
HAR09;2018;12;4;14;41;13;;;;;;;;;;;;1;;;;4.11;0;;;
HAR09;2018;12;4;14;46;0;-37.854450;77.523867;2.4;5;4.11;18;;;;;;;;3751267S;07731432E;;0;;;
HAR09;2018;12;4;14;46;10;;;;;;;;;;;;1;;;;4.11;0;;;
HAR09;2018;12;4;14;46;11;;;;;;;;;;;;1;;;;4.11;0;;;
HAR09;2018;12;4;14;46;16;;;;;;;;;;;;1;;;;4.11;0;;;
HAR09;2018;12;4;14;46;17;;;;;;;;;;;;1;;;;4.11;0;;;
HAR09;2018;12;4;14;46;18;;;;;;;;;;;;1;;;;4.11;0;;;
HAR09;2018;12;4;14;51;32;;;;;;;;;;;;1;;;;4.11;0;;;
HAR09;2018;12;4;14;51;33;;;;;;;;;;;;1;;;;4.11;0;;;
HAR09;2018;12;4;14;56;26;;;;;;;;;;;;1;;;;4.11;0;;;
HAR09;2018;12;4;14;56;27;;;;;;;;;;;;1;;;;4.11;0;;;
HAR09;2018;12;4;15;1;0;-37.854483;77.523850;1.3;5;4.11;17;;;;;;;;3751269S;07731431E;;0;;;
HAR09;2018;12;4;15;1;23;;;;;;;;;;;;1;;;;4.11;0;;;
HAR09;2018;12;4;15;1;24;;;;;;;;;;;;1;;;;4.11;0;;;
HAR09;2018;12;4;15;1;30;;;;;;;;;;;;1;;;;4.11;0;;;
HAR09;2018;12;4;15;1;31;;;;;;;;;;;;1;;;;4.11;0;;;
HAR09;2018;12;4;15;1;32;;;;;;;;;;;;1;;;;4.11;0;;;
HAR09;2018;12;4;15;6;42;;;;;;;;;;;;1;;;;4.11;0;;;
HAR09;2018;12;4;15;6;43;;;;;;;;;;;;1;;;;4.11;0;;;
HAR09;2018;12;4;15;11;37;;;;;;;;;;;;1;;;;4.11;0;;;
HAR09;2018;12;4;15;11;38;;;;;;;;;;;;1;;;;4.11;0;;;
HAR09;2018;12;4;15;16;0;-37.854333;77.523800;2.0;5;4.11;17.5;;;;;;;;3751260S;07731428E;;0;;;
HAR09;2018;12;4;15;16;34;;;;;;;;;;;;1;;;;4.11;0;;;
HAR09;2018;12;4;15;16;35;;;;;;;;;;;;1;;;;4.11;0;;;
HAR09;2018;12;4;15;16;41;;;;;;;;;;;;1;;;;4.11;0;;;
HAR09;2018;12;4;15;16;42;;;;;;;;;;;;1;;;;4.11;0;;;
HAR09;2018;12;4;15;16;43;;;;;;;;;;;;1;;;;4.11;0;;;
HAR09;2018;12;4;15;21;52;;;;;;;;;;;;1;;;;4.11;0;;;
HAR09;2018;12;4;15;21;53;;;;;;;;;;;;1;;;;4.11;0;;;
HAR09;2018;12;4;15;26;47;;;;;;;;;;;;1;;;;4.11;0;;;
HAR09;2018;12;4;15;26;48;;;;;;;;;;;;1;;;;4.11;0;;;
HAR09;2018;12;4;15;31;45;;;;;;;;;;;;1;;;;4.11;0;;;
HAR09;2018;12;4;15;31;46;;;;;;;;;;;;1;;;;4.11;0;;;
HAR09;2018;12;4;15;31;51;;;;;;;;;;;;1;;;;4.11;0;;;
HAR09;2018;12;4;15;31;52;;;;;;;;;;;;1;;;;4.11;0;;;
HAR09;2018;12;4;15;31;53;;;;;;;;;;;;1;;;;4.11;0;;;
HAR09;2018;12;4;15;32;0;-37.854183;77.523867;0.1;5;4.11;19;;;;;;;;3751251S;07731432E;;0;;;
HAR09;2018;12;4;15;37;6;;;;;;;;;;;;1;;;;4.11;0;;;
HAR09;2018;12;4;15;37;7;;;;;;;;;;;;1;;;;4.11;0;;;
HAR09;2018;12;4;15;42;1;;;;;;;;;;;;1;;;;4.11;0;;;
HAR09;2018;12;4;15;42;2;;;;;;;;;;;;1;;;;4.11;0;;;
HAR09;2018;12;4;15;46;59;;;;;;;;;;;;1;;;;4.11;0;;;
HAR09;2018;12;4;15;47;0;-37.854283;77.523850;0.7;6;4.11;20;;;;;;;;3751257S;07731431E;;0;;;
HAR09;2018;12;4;15;47;0;;;;;;;;;;;;1;;;;4.11;0;;;
HAR09;2018;12;4;15;47;5;;;;;;;;;;;;1;;;;4.11;0;;;
HAR09;2018;12;4;15;47;6;;;;;;;;;;;;1;;;;4.11;0;;;
HAR09;2018;12;4;15;47;7;;;;;;;;;;;;1;;;;4.11;0;;;
HAR09;2018;12;4;15;52;20;;;;;;;;;;;;1;;;;4.11;0;;;
HAR09;2018;12;4;15;52;21;;;;;;;;;;;;1;;;;4.11;0;;;
HAR09;2018;12;4;15;57;14;;;;;;;;;;;;1;;;;4.11;0;;;
HAR09;2018;12;4;15;57;15;;;;;;;;;;;;1;;;;4.1;0;;;
HAR09;2018;12;4;16;2;0;-37.854300;77.523833;0.6;7;4.11;19.5;;;;;;;;3751258S;07731430E;;0;;;
HAR09;2018;12;4;16;2;11;;;;;;;;;;;;1;;;;4.11;0;;;
HAR09;2018;12;4;16;2;12;;;;;;;;;;;;1;;;;4.11;0;;;
HAR09;2018;12;4;16;2;18;;;;;;;;;;;;1;;;;4.11;0;;;
HAR09;2018;12;4;16;2;19;;;;;;;;;;;;1;;;;4.11;0;;;
HAR09;2018;12;4;16;2;20;;;;;;;;;;;;1;;;;4.11;0;;;
HAR09;2018;12;4;16;7;31;;;;;;;;;;;;1;;;;4.11;0;;;
HAR09;2018;12;4;16;7;32;;;;;;;;;;;;1;;;;4.1;0;;;
HAR09;2018;12;4;16;12;26;;;;;;;;;;;;1;;;;4.11;0;;;
HAR09;2018;12;4;16;12;27;;;;;;;;;;;;1;;;;4.1;0;;;
HAR09;2018;12;4;16;17;0;-37.854400;77.523783;0.1;6;4.1;20;;;;;;;;3751264S;07731427E;;0;;;
HAR09;2018;12;4;16;17;24;;;;;;;;;;;;1;;;;4.11;0;;;
HAR09;2018;12;4;16;17;25;;;;;;;;;;;;1;;;;4.1;0;;;
HAR09;2018;12;4;16;17;30;;;;;;;;;;;;1;;;;4.1;0;;;
HAR09;2018;12;4;16;17;31;;;;;;;;;;;;1;;;;4.11;0;;;
HAR09;2018;12;4;16;17;32;;;;;;;;;;;;1;;;;4.1;0;;;
HAR09;2018;12;4;16;22;47;;;;;;;;;;;;1;;;;4.1;0;;;
HAR09;2018;12;4;16;22;48;;;;;;;;;;;;1;;;;4.1;0;;;
HAR09;2018;12;4;16;27;41;;;;;;;;;;;;1;;;;4.1;0;;;
HAR09;2018;12;4;16;27;42;;;;;;;;;;;;1;;;;4.1;0;;;
HAR09;2018;12;4;16;32;39;;;;;;;;;;;;1;;;;4.1;0;;;
HAR09;2018;12;4;16;32;40;;;;;;;;;;;;1;;;;4.1;0;;;
HAR09;2018;12;4;16;32;45;;;;;;;;;;;;1;;;;4.1;0;;;
HAR09;2018;12;4;16;32;46;;;;;;;;;;;;1;;;;4.1;0;;;
HAR09;2018;12;4;16;32;47;;;;;;;;;;;;1;;;;4.1;0;;;
HAR09;2018;12;4;16;33;0;-37.854367;77.523883;0.4;6;4.1;19.5;;;;;;;;3751262S;07731433E;;0;;;
HAR09;2018;12;4;16;38;0;;;;;;;;;;;;1;;;;4.1;0;;;
HAR09;2018;12;4;16;38;1;;;;;;;;;;;;1;;;;4.1;0;;;
HAR09;2018;12;4;16;42;54;;;;;;;;;;;;1;;;;4.1;0;;;
HAR09;2018;12;4;16;42;55;;;;;;;;;;;;1;;;;4.1;0;;;
HAR09;2018;12;4;16;47;51;;;;;;;;;;;;1;;;;4.1;0;;;
HAR09;2018;12;4;16;47;52;;;;;;;;;;;;1;;;;4.1;0;;;
HAR09;2018;12;4;16;47;58;;;;;;;;;;;;1;;;;4.1;0;;;
HAR09;2018;12;4;16;47;59;;;;;;;;;;;;1;;;;4.1;0;;;
HAR09;2018;12;4;16;48;0;;;;;;;;;;;;1;;;;4.1;0;;;
HAR09;2018;12;4;16;48;0;-37.854317;77.523833;0.2;10;4.1;19;;;;;;;;3751259S;07731430E;;0;;;
HAR09;2018;12;4;16;53;16;;;;;;;;;;;;1;;;;4.1;0;;;
HAR09;2018;12;4;16;53;17;;;;;;;;;;;;1;;;;4.1;0;;;
HAR09;2018;12;4;16;58;10;;;;;;;;;;;;1;;;;4.1;0;;;
HAR09;2018;12;4;16;58;11;;;;;;;;;;;;1;;;;4.1;0;;;
HAR09;2018;12;4;17;3;0;-37.854633;77.523300;0.8;8;4.1;19.5;;;;;;;;3751278S;07731398E;;0;;;
HAR09;2018;12;4;17;3;7;;;;;;;;;;;;1;;;;4.1;0;;;
HAR09;2018;12;4;17;3;8;;;;;;;;;;;;1;;;;4.1;0;;;
HAR09;2018;12;4;17;3;14;;;;;;;;;;;;1;;;;4.1;0;;;
HAR09;2018;12;4;17;3;15;;;;;;;;;;;;1;;;;4.1;0;;;
HAR09;2018;12;4;17;3;16;;;;;;;;;;;;1;;;;4.1;0;;;
HAR09;2018;12;4;17;8;30;;;;;;;;;;;;1;;;;4.1;0;;;
HAR09;2018;12;4;17;8;31;;;;;;;;;;;;1;;;;4.1;0;;;
HAR09;2018;12;4;17;13;25;;;;;;;;;;;;1;;;;4.1;0;;;
HAR09;2018;12;4;17;13;26;;;;;;;;;;;;1;;;;4.1;0;;;
HAR09;2018;12;4;17;18;0;-37.854317;77.523617;0.7;11;4.1;19;;;;;;;;3751259S;07731417E;;0;;;
HAR09;2018;12;4;17;18;23;;;;;;;;;;;;1;;;;4.1;0;;;
HAR09;2018;12;4;17;18;24;;;;;;;;;;;;1;;;;4.1;0;;;
HAR09;2018;12;4;17;18;29;;;;;;;;;;;;1;;;;4.1;0;;;
HAR09;2018;12;4;17;18;30;;;;;;;;;;;;1;;;;4.1;0;;;
HAR09;2018;12;4;17;18;31;;;;;;;;;;;;1;;;;4.1;0;;;
HAR09;2018;12;4;17;23;50;;;;;;;;;;;;1;;;;4.1;0;;;
HAR09;2018;12;4;17;23;51;;;;;;;;;;;;1;;;;4.1;0;;;
HAR09;2018;12;4;17;28;44;;;;;;;;;;;;1;;;;4.1;0;;;
HAR09;2018;12;4;17;28;45;;;;;;;;;;;;1;;;;4.1;0;;;
HAR09;2018;12;4;17;33;42;;;;;;;;;;;;1;;;;4.1;0;;;
HAR09;2018;12;4;17;33;43;;;;;;;;;;;;1;;;;4.1;0;;;
HAR09;2018;12;4;17;33;48;;;;;;;;;;;;1;;;;4.1;0;;;
HAR09;2018;12;4;17;33;49;;;;;;;;;;;;1;;;;4.1;0;;;
HAR09;2018;12;4;17;33;50;;;;;;;;;;;;1;;;;4.1;0;;;
HAR09;2018;12;4;17;34;0;-37.854250;77.523867;0.5;33;4.1;19.5;;;;;;;;3751255S;07731432E;;0;;;
HAR09;2018;12;4;17;39;30;;;;;;;;;;;;1;;;;4.09;0;;;
HAR09;2018;12;4;17;39;31;;;;;;;;;;;;1;;;;4.09;0;;;
HAR09;2018;12;4;17;44;25;;;;;;;;;;;;1;;;;4.1;0;;;
HAR09;2018;12;4;17;44;26;;;;;;;;;;;;1;;;;4.09;0;;;
HAR09;2018;12;4;17;49;0;-37.854400;77.523850;0.0;12;4.09;19.5;;;;;;;;3751264S;07731431E;;0;;;
HAR09;2018;12;4;17;49;23;;;;;;;;;;;;1;;;;4.09;0;;;
HAR09;2018;12;4;17;49;24;;;;;;;;;;;;1;;;;4.09;0;;;
HAR09;2018;12;4;17;49;29;;;;;;;;;;;;1;;;;4.09;0;;;
HAR09;2018;12;4;17;49;30;;;;;;;;;;;;1;;;;4.09;0;;;
HAR09;2018;12;4;17;49;31;;;;;;;;;;;;1;;;;4.09;0;;;
HAR09;2018;12;4;17;54;50;;;;;;;;;;;;1;;;;4.09;0;;;
HAR09;2018;12;4;17;54;51;;;;;;;;;;;;1;;;;4.09;0;;;
HAR09;2018;12;4;17;59;45;;;;;;;;;;;;1;;;;4.09;0;;;
HAR09;2018;12;4;17;59;46;;;;;;;;;;;;1;;;;4.09;0;;;
HAR09;2018;12;4;18;4;43;;;;;;;;;;;;1;;;;4.09;0;;;
HAR09;2018;12;4;18;4;44;;;;;;;;;;;;1;;;;4.09;0;;;
HAR09;2018;12;4;18;4;49;;;;;;;;;;;;1;;;;4.09;0;;;
HAR09;2018;12;4;18;4;50;;;;;;;;;;;;1;;;;4.09;0;;;
HAR09;2018;12;4;18;4;51;;;;;;;;;;;;1;;;;4.09;0;;;
HAR09;2018;12;4;18;5;0;-37.854367;77.523783;0.2;19;4.09;19.5;;;;;;;;3751262S;07731427E;;0;;;
HAR09;2018;12;4;18;10;17;;;;;;;;;;;;1;;;;4.09;0;;;
HAR09;2018;12;4;18;10;18;;;;;;;;;;;;1;;;;4.09;0;;;
HAR09;2018;12;4;18;15;11;;;;;;;;;;;;1;;;;4.09;0;;;
HAR09;2018;12;4;18;15;12;;;;;;;;;;;;1;;;;4.09;0;;;
HAR09;2018;12;4;18;20;0;-37.854383;77.523833;0.4;14;4.09;20;;;;;;;;3751263S;07731430E;;0;;;
HAR09;2018;12;4;18;20;9;;;;;;;;;;;;1;;;;4.09;0;;;
HAR09;2018;12;4;18;20;10;;;;;;;;;;;;1;;;;4.09;0;;;
HAR09;2018;12;4;18;20;15;;;;;;;;;;;;1;;;;4.09;0;;;
HAR09;2018;12;4;18;20;16;;;;;;;;;;;;1;;;;4.09;0;;;
HAR09;2018;12;4;18;20;17;;;;;;;;;;;;1;;;;4.09;0;;;
HAR09;2018;12;4;18;25;40;;;;;;;;;;;;1;;;;4.09;0;;;
HAR09;2018;12;4;18;25;41;;;;;;;;;;;;1;;;;4.09;0;;;
HAR09;2018;12;4;18;30;34;;;;;;;;;;;;1;;;;4.09;0;;;
HAR09;2018;12;4;18;30;35;;;;;;;;;;;;1;;;;4.09;0;;;
HAR09;2018;12;4;18;35;31;;;;;;;;;;;;1;;;;4.09;0;;;
HAR09;2018;12;4;18;35;32;;;;;;;;;;;;1;;;;4.09;0;;;
HAR09;2018;12;4;18;35;38;;;;;;;;;;;;1;;;;4.09;0;;;
HAR09;2018;12;4;18;35;39;;;;;;;;;;;;1;;;;4.09;0;;;
HAR09;2018;12;4;18;35;40;;;;;;;;;;;;1;;;;4.09;0;;;
HAR09;2018;12;4;18;36;0;-37.854450;77.523750;0.3;39;4.09;20.5;;;;;;;;3751267S;07731425E;;0;;;
HAR09;2018;12;4;18;41;25;;;;;;;;;;;;1;;;;4.08;0;;;
HAR09;2018;12;4;18;41;26;;;;;;;;;;;;1;;;;4.08;0;;;
HAR09;2018;12;4;18;46;19;;;;;;;;;;;;1;;;;4.08;0;;;
HAR09;2018;12;4;18;46;20;;;;;;;;;;;;1;;;;4.08;0;;;
HAR09;2018;12;4;18;51;17;;;;;;;;;;;;1;;;;4.09;0;;;
HAR09;2018;12;4;18;51;18;;;;;;;;;;;;1;;;;4.08;0;;;
HAR09;2018;12;4;18;51;23;;;;;;;;;;;;1;;;;4.08;0;;;
HAR09;2018;12;4;18;51;24;;;;;;;;;;;;1;;;;4.08;0;;;
HAR09;2018;12;4;18;51;25;;;;;;;;;;;;1;;;;4.08;0;;;
HAR09;2018;12;4;18;52;0;-37.854183;77.523800;0.7;28;4.08;20.5;;;;;;;;3751251S;07731428E;;0;;;
HAR09;2018;12;4;18;57;1;;;;;;;;;;;;1;;;;4.08;0;;;
HAR09;2018;12;4;18;57;2;;;;;;;;;;;;1;;;;4.08;0;;;
HAR09;2018;12;4;19;1;55;;;;;;;;;;;;1;;;;4.08;0;;;
HAR09;2018;12;4;19;1;56;;;;;;;;;;;;1;;;;4.08;0;;;
HAR09;2018;12;4;19;6;53;;;;;;;;;;;;1;;;;4.08;0;;;
HAR09;2018;12;4;19;6;54;;;;;;;;;;;;1;;;;4.08;0;;;
HAR09;2018;12;4;19;6;59;;;;;;;;;;;;1;;;;4.08;0;;;
HAR09;2018;12;4;19;7;0;;;;;;;;;;;;1;;;;4.08;0;;;
HAR09;2018;12;4;19;7;0;-37.854167;77.523817;0.4;13;4.08;20.5;;;;;;;;3751250S;07731429E;;0;;;
HAR09;2018;12;4;19;7;1;;;;;;;;;;;;1;;;;4.08;0;;;
HAR09;2018;12;4;19;12;21;;;;;;;;;;;;1;;;;4.08;0;;;
HAR09;2018;12;4;19;12;22;;;;;;;;;;;;1;;;;4.08;0;;;
HAR09;2018;12;4;19;17;15;;;;;;;;;;;;1;;;;4.08;0;;;
HAR09;2018;12;4;19;17;16;;;;;;;;;;;;1;;;;4.08;0;;;
HAR09;2018;12;4;19;22;0;-37.854317;77.523817;0.6;11;4.08;19;;;;;;;;3751259S;07731429E;;0;;;
HAR09;2018;12;4;19;22;13;;;;;;;;;;;;1;;;;4.08;0;;;
HAR09;2018;12;4;19;22;14;;;;;;;;;;;;1;;;;4.08;0;;;
HAR09;2018;12;4;19;22;19;;;;;;;;;;;;1;;;;4.08;0;;;
HAR09;2018;12;4;19;22;20;;;;;;;;;;;;1;;;;4.08;0;;;
HAR09;2018;12;4;19;22;21;;;;;;;;;;;;1;;;;4.08;0;;;
HAR09;2018;12;4;19;27;38;;;;;;;;;;;;1;;;;4.08;0;;;
HAR09;2018;12;4;19;27;39;;;;;;;;;;;;1;;;;4.08;0;;;
HAR09;2018;12;4;19;32;32;;;;;;;;;;;;1;;;;4.08;0;;;
HAR09;2018;12;4;19;32;33;;;;;;;;;;;;1;;;;4.08;0;;;
HAR09;2018;12;4;19;37;0;-37.854433;77.523783;1.7;9;4.08;18.5;;;;;;;;3751266S;07731427E;;0;;;
HAR09;2018;12;4;19;37;30;;;;;;;;;;;;1;;;;4.08;0;;;
HAR09;2018;12;4;19;37;31;;;;;;;;;;;;1;;;;4.08;0;;;
HAR09;2018;12;4;19;37;36;;;;;;;;;;;;1;;;;4.08;0;;;
HAR09;2018;12;4;19;37;37;;;;;;;;;;;;1;;;;4.08;0;;;
HAR09;2018;12;4;19;37;38;;;;;;;;;;;;1;;;;4.08;0;;;
HAR09;2018;12;4;19;42;55;;;;;;;;;;;;1;;;;4.08;0;;;
HAR09;2018;12;4;19;42;56;;;;;;;;;;;;1;;;;4.08;0;;;
HAR09;2018;12;4;19;47;50;;;;;;;;;;;;1;;;;4.08;0;;;
HAR09;2018;12;4;19;47;51;;;;;;;;;;;;1;;;;4.08;0;;;
HAR09;2018;12;4;19;52;48;;;;;;;;;;;;1;;;;4.08;0;;;
HAR09;2018;12;4;19;52;49;;;;;;;;;;;;1;;;;4.08;0;;;
HAR09;2018;12;4;19;52;54;;;;;;;;;;;;1;;;;4.08;0;;;
HAR09;2018;12;4;19;52;55;;;;;;;;;;;;1;;;;4.08;0;;;
HAR09;2018;12;4;19;52;56;;;;;;;;;;;;1;;;;4.08;0;;;
HAR09;2018;12;4;19;53;0;-37.854600;77.523883;0.1;16;4.08;19.5;;;;;;;;3751276S;07731433E;;0;;;
HAR09;2018;12;4;19;58;18;;;;;;;;;;;;1;;;;4.08;0;;;
HAR09;2018;12;4;19;58;19;;;;;;;;;;;;1;;;;4.08;0;;;
HAR09;2018;12;4;20;3;12;;;;;;;;;;;;1;;;;4.08;0;;;
HAR09;2018;12;4;20;3;13;;;;;;;;;;;;1;;;;4.08;0;;;
HAR09;2018;12;4;20;8;0;-37.854900;77.523933;0.7;17;4.08;20;;;;;;;;3751294S;07731436E;;0;;;
HAR09;2018;12;4;20;8;10;;;;;;;;;;;;1;;;;4.08;0;;;
HAR09;2018;12;4;20;8;11;;;;;;;;;;;;1;;;;4.08;0;;;
HAR09;2018;12;4;20;8;16;;;;;;;;;;;;1;;;;4.08;0;;;
HAR09;2018;12;4;20;8;17;;;;;;;;;;;;1;;;;4.08;0;;;
HAR09;2018;12;4;20;8;18;;;;;;;;;;;;1;;;;4.08;0;;;
HAR09;2018;12;4;20;13;42;;;;;;;;;;;;1;;;;4.08;0;;;
HAR09;2018;12;4;20;13;43;;;;;;;;;;;;1;;;;4.08;0;;;
HAR09;2018;12;4;20;18;36;;;;;;;;;;;;1;;;;4.08;0;;;
HAR09;2018;12;4;20;18;37;;;;;;;;;;;;1;;;;4.08;0;;;
HAR09;2018;12;4;20;23;33;;;;;;;;;;;;1;;;;4.08;0;;;
HAR09;2018;12;4;20;23;34;;;;;;;;;;;;1;;;;4.08;0;;;
HAR09;2018;12;4;20;23;40;;;;;;;;;;;;1;;;;4.08;0;;;
HAR09;2018;12;4;20;23;41;;;;;;;;;;;;1;;;;4.08;0;;;
HAR09;2018;12;4;20;23;42;;;;;;;;;;;;1;;;;4.08;0;;;
HAR09;2018;12;4;20;24;0;-37.855200;77.523933;1.1;15;4.08;20.5;;;;;;;;3751312S;07731436E;;0;;;
HAR09;2018;12;4;20;29;2;;;;;;;;;;;;1;;;;4.08;0;;;
HAR09;2018;12;4;20;29;3;;;;;;;;;;;;1;;;;4.08;0;;;
HAR09;2018;12;4;20;33;57;;;;;;;;;;;;1;;;;4.08;0;;;
HAR09;2018;12;4;20;33;58;;;;;;;;;;;;1;;;;4.08;0;;;
HAR09;2018;12;4;20;38;54;;;;;;;;;;;;1;;;;4.08;0;;;
HAR09;2018;12;4;20;38;55;;;;;;;;;;;;1;;;;4.08;0;;;
HAR09;2018;12;4;20;39;0;-37.858217;77.523633;0.7;17;4.08;19;;;;;;;;3751493S;07731418E;;0;;;
HAR09;2018;12;4;20;39;1;;;;;;;;;;;;1;;;;4.08;0;;;
HAR09;2018;12;4;20;39;2;;;;;;;;;;;;1;;;;4.08;0;;;
HAR09;2018;12;4;20;39;3;;;;;;;;;;;;1;;;;4.08;0;;;
HAR09;2018;12;4;20;44;26;;;;;;;;;;;;1;;;;4.08;0;;;
HAR09;2018;12;4;20;44;27;;;;;;;;;;;;1;;;;4.08;0;;;
HAR09;2018;12;4;20;49;21;;;;;;;;;;;;1;;;;4.08;0;;;
HAR09;2018;12;4;20;49;22;;;;;;;;;;;;1;;;;4.08;0;;;
HAR09;2018;12;4;20;54;0;-37.853933;77.525633;0.1;7;4.08;17;;;;;;;;3751236S;07731538E;;0;;;
HAR09;2018;12;4;20;54;18;;;;;;;;;;;;1;;;;4.08;0;;;
HAR09;2018;12;4;20;54;19;;;;;;;;;;;;1;;;;4.08;0;;;
HAR09;2018;12;4;20;54;25;;;;;;;;;;;;1;;;;4.08;0;;;
HAR09;2018;12;4;20;54;26;;;;;;;;;;;;1;;;;4.08;0;;;
HAR09;2018;12;4;20;54;27;;;;;;;;;;;;1;;;;4.08;0;;;
HAR09;2018;12;4;20;59;40;;;;;;;;;;;;1;;;;4.08;0;;;
HAR09;2018;12;4;20;59;41;;;;;;;;;;;;1;;;;4.08;0;;;
HAR09;2018;12;4;21;4;35;;;;;;;;;;;;1;;;;4.08;0;;;
HAR09;2018;12;4;21;4;36;;;;;;;;;;;;1;;;;4.08;0;;;
HAR09;2018;12;4;21;9;32;;;;;;;;;;;;1;;;;4.08;0;;;
HAR09;2018;12;4;21;9;33;;;;;;;;;;;;1;;;;4.08;0;;;
HAR09;2018;12;4;21;9;39;;;;;;;;;;;;1;;;;4.08;0;;;
HAR09;2018;12;4;21;9;40;;;;;;;;;;;;1;;;;4.08;0;;;
HAR09;2018;12;4;21;9;41;;;;;;;;;;;;1;;;;4.08;0;;;
HAR09;2018;12;4;21;10;0;-37.853583;77.524117;0.3;16;4.08;17;;;;;;;;3751215S;07731447E;;0;;;
HAR09;2018;12;4;21;15;2;;;;;;;;;;;;1;;;;4.08;0;;;
HAR09;2018;12;4;21;15;3;;;;;;;;;;;;1;;;;4.08;0;;;
HAR09;2018;12;4;21;19;57;;;;;;;;;;;;1;;;;4.08;0;;;
HAR09;2018;12;4;21;19;58;;;;;;;;;;;;1;;;;4.08;0;;;
HAR09;2018;12;4;21;24;54;;;;;;;;;;;;1;;;;4.08;0;;;
HAR09;2018;12;4;21;24;55;;;;;;;;;;;;1;;;;4.08;0;;;
HAR09;2018;12;4;21;25;0;-37.853717;77.524217;0.4;13;4.08;17.5;;;;;;;;3751223S;07731453E;;0;;;
HAR09;2018;12;4;21;25;1;;;;;;;;;;;;1;;;;4.08;0;;;
HAR09;2018;12;4;21;25;2;;;;;;;;;;;;1;;;;4.08;0;;;
HAR09;2018;12;4;21;25;3;;;;;;;;;;;;1;;;;4.08;0;;;
HAR09;2018;12;4;21;30;21;;;;;;;;;;;;1;;;;4.08;0;;;
HAR09;2018;12;4;21;30;22;;;;;;;;;;;;1;;;;4.07;0;;;
HAR09;2018;12;4;21;35;16;;;;;;;;;;;;1;;;;4.08;0;;;
HAR09;2018;12;4;21;35;17;;;;;;;;;;;;1;;;;4.08;0;;;
HAR09;2018;12;4;21;40;0;-37.854567;77.521767;0.9;10;4.07;16.5;;;;;;;;3751274S;07731306E;;0;;;
HAR09;2018;12;4;21;40;13;;;;;;;;;;;;1;;;;4.08;0;;;
HAR09;2018;12;4;21;40;14;;;;;;;;;;;;1;;;;4.08;0;;;
HAR09;2018;12;4;21;40;20;;;;;;;;;;;;1;;;;4.08;0;;;
HAR09;2018;12;4;21;40;21;;;;;;;;;;;;1;;;;4.07;0;;;
HAR09;2018;12;4;21;40;22;;;;;;;;;;;;1;;;;4.07;0;;;
HAR09;2018;12;4;21;45;37;;;;;;;;;;;;1;;;;4.07;0;;;
HAR09;2018;12;4;21;45;38;;;;;;;;;;;;1;;;;4.07;0;;;
HAR09;2018;12;4;21;50;31;;;;;;;;;;;;1;;;;4.08;0;;;
HAR09;2018;12;4;21;50;32;;;;;;;;;;;;1;;;;4.08;0;;;
HAR09;2018;12;4;21;55;0;-37.854350;77.524000;1.4;8;4.08;17;;;;;;;;3751261S;07731440E;;0;;;
HAR09;2018;12;4;21;55;28;;;;;;;;;;;;1;;;;4.07;0;;;
HAR09;2018;12;4;21;55;29;;;;;;;;;;;;1;;;;4.07;0;;;
HAR09;2018;12;4;21;55;35;;;;;;;;;;;;1;;;;4.08;0;;;
HAR09;2018;12;4;21;55;36;;;;;;;;;;;;1;;;;4.07;0;;;
HAR09;2018;12;4;21;55;37;;;;;;;;;;;;1;;;;4.08;0;;;
HAR09;2018;12;4;22;0;51;;;;;;;;;;;;1;;;;4.07;0;;;
HAR09;2018;12;4;22;0;52;;;;;;;;;;;;1;;;;4.07;0;;;
HAR09;2018;12;4;22;5;46;;;;;;;;;;;;1;;;;4.08;0;;;
HAR09;2018;12;4;22;5;47;;;;;;;;;;;;1;;;;4.07;0;;;
HAR09;2018;12;4;22;10;43;;;;;;;;;;;;1;;;;4.07;0;;;
HAR09;2018;12;4;22;10;44;;;;;;;;;;;;1;;;;4.07;0;;;
HAR09;2018;12;4;22;10;50;;;;;;;;;;;;1;;;;4.07;0;;;
HAR09;2018;12;4;22;10;51;;;;;;;;;;;;1;;;;4.07;0;;;
HAR09;2018;12;4;22;10;52;;;;;;;;;;;;1;;;;4.07;0;;;
HAR09;2018;12;4;22;11;0;-37.854550;77.524017;1.8;8;4.07;16;;;;;;;;3751273S;07731441E;;0;;;
HAR09;2018;12;4;22;16;5;;;;;;;;;;;;1;;;;4.07;0;;;
HAR09;2018;12;4;22;16;6;;;;;;;;;;;;1;;;;4.07;0;;;
HAR09;2018;12;4;22;21;0;;;;;;;;;;;;1;;;;4.07;0;;;
HAR09;2018;12;4;22;21;1;;;;;;;;;;;;1;;;;4.07;0;;;
HAR09;2018;12;4;22;25;57;;;;;;;;;;;;1;;;;4.07;0;;;
HAR09;2018;12;4;22;25;58;;;;;;;;;;;;1;;;;4.07;0;;;
HAR09;2018;12;4;22;26;0;-37.854733;77.524033;0.8;11;4.07;15.5;;;;;;;;3751284S;07731442E;;0;;;
HAR09;2018;12;4;22;26;4;;;;;;;;;;;;1;;;;4.07;0;;;
HAR09;2018;12;4;22;26;5;;;;;;;;;;;;1;;;;4.07;0;;;
HAR09;2018;12;4;22;26;6;;;;;;;;;;;;1;;;;4.07;0;;;
HAR09;2018;12;4;22;31;22;;;;;;;;;;;;1;;;;4.07;0;;;
HAR09;2018;12;4;22;31;23;;;;;;;;;;;;1;;;;4.07;0;;;
HAR09;2018;12;4;22;36;17;;;;;;;;;;;;1;;;;4.07;0;;;
HAR09;2018;12;4;22;36;18;;;;;;;;;;;;1;;;;4.07;0;;;
HAR09;2018;12;4;22;41;0;-37.855000;77.523867;0.5;7;4.07;16;;;;;;;;3751300S;07731432E;;0;;;
HAR09;2018;12;4;22;41;15;;;;;;;;;;;;1;;;;4.07;0;;;
HAR09;2018;12;4;22;41;16;;;;;;;;;;;;1;;;;4.07;0;;;
HAR09;2018;12;4;22;41;21;;;;;;;;;;;;1;;;;4.07;0;;;
HAR09;2018;12;4;22;41;22;;;;;;;;;;;;1;;;;4.07;0;;;
HAR09;2018;12;4;22;41;23;;;;;;;;;;;;1;;;;4.07;0;;;
HAR09;2018;12;4;22;46;35;;;;;;;;;;;;1;;;;4.07;0;;;
HAR09;2018;12;4;22;46;36;;;;;;;;;;;;1;;;;4.07;0;;;
HAR09;2018;12;4;22;51;30;;;;;;;;;;;;1;;;;4.07;0;;;
HAR09;2018;12;4;22;51;31;;;;;;;;;;;;1;;;;4.07;0;;;
HAR09;2018;12;4;22;56;0;-37.855217;77.523617;1.2;7;4.07;16;;;;;;;;3751313S;07731417E;;0;;;
HAR09;2018;12;4;22;56;27;;;;;;;;;;;;1;;;;4.07;0;;;
HAR09;2018;12;4;22;56;28;;;;;;;;;;;;1;;;;4.07;0;;;
HAR09;2018;12;4;22;56;34;;;;;;;;;;;;1;;;;4.07;0;;;
HAR09;2018;12;4;22;56;35;;;;;;;;;;;;1;;;;4.07;0;;;
HAR09;2018;12;4;22;56;36;;;;;;;;;;;;1;;;;4.07;0;;;
HAR09;2018;12;4;23;1;49;;;;;;;;;;;;1;;;;4.07;0;;;
HAR09;2018;12;4;23;1;50;;;;;;;;;;;;1;;;;4.07;0;;;
HAR09;2018;12;4;23;6;44;;;;;;;;;;;;1;;;;4.07;0;;;
HAR09;2018;12;4;23;6;45;;;;;;;;;;;;1;;;;4.07;0;;;
HAR09;2018;12;4;23;11;42;;;;;;;;;;;;1;;;;4.07;0;;;
HAR09;2018;12;4;23;11;43;;;;;;;;;;;;1;;;;4.07;0;;;
HAR09;2018;12;4;23;11;48;;;;;;;;;;;;1;;;;4.07;0;;;
HAR09;2018;12;4;23;11;49;;;;;;;;;;;;1;;;;4.07;0;;;
HAR09;2018;12;4;23;11;50;;;;;;;;;;;;1;;;;4.07;0;;;
HAR09;2018;12;4;23;12;0;-37.854900;77.524000;0.4;11;4.07;17;;;;;;;;3751294S;07731440E;;0;;;
HAR09;2018;12;4;23;17;6;;;;;;;;;;;;1;;;;4.07;0;;;
HAR09;2018;12;4;23;17;7;;;;;;;;;;;;1;;;;4.07;0;;;
HAR09;2018;12;4;23;22;1;;;;;;;;;;;;1;;;;4.07;0;;;
HAR09;2018;12;4;23;22;2;;;;;;;;;;;;1;;;;4.07;0;;;
HAR09;2018;12;4;23;26;59;;;;;;;;;;;;1;;;;4.07;0;;;
HAR09;2018;12;4;23;27;0;-37.853417;77.525333;0.7;8;4.07;17;;;;;;;;3751205S;07731520E;;0;;;
HAR09;2018;12;4;23;27;1;;;;;;;;;;;;1;;;;4.07;0;;;
HAR09;2018;12;4;23;27;5;;;;;;;;;;;;1;;;;4.07;0;;;
HAR09;2018;12;4;23;27;6;;;;;;;;;;;;1;;;;4.07;0;;;
HAR09;2018;12;4;23;27;7;;;;;;;;;;;;1;;;;4.07;0;;;
HAR09;2018;12;4;23;32;19;;;;;;;;;;;;1;;;;4.07;0;;;
HAR09;2018;12;4;23;32;20;;;;;;;;;;;;1;;;;4.07;0;;;
HAR09;2018;12;4;23;37;14;;;;;;;;;;;;1;;;;4.07;0;;;
HAR09;2018;12;4;23;37;15;;;;;;;;;;;;1;;;;4.07;0;;;
HAR09;2018;12;4;23;42;0;-37.853367;77.523917;0.2;13;4.07;18;;;;;;;;3751202S;07731435E;;0;;;
HAR09;2018;12;4;23;42;12;;;;;;;;;;;;1;;;;4.07;0;;;
HAR09;2018;12;4;23;42;13;;;;;;;;;;;;1;;;;4.07;0;;;
HAR09;2018;12;4;23;42;18;;;;;;;;;;;;1;;;;4.07;0;;;
HAR09;2018;12;4;23;42;19;;;;;;;;;;;;1;;;;4.07;0;;;
HAR09;2018;12;4;23;42;20;;;;;;;;;;;;1;;;;4.07;0;;;
HAR09;2018;12;4;23;47;40;;;;;;;;;;;;1;;;;4.07;0;;;
HAR09;2018;12;4;23;47;41;;;;;;;;;;;;1;;;;4.06;0;;;
HAR09;2018;12;4;23;52;35;;;;;;;;;;;;1;;;;4.07;0;;;
HAR09;2018;12;4;23;52;36;;;;;;;;;;;;1;;;;4.07;0;;;
HAR09;2018;12;4;23;57;32;;;;;;;;;;;;1;;;;4.07;0;;;
HAR09;2018;12;4;23;57;33;;;;;;;;;;;;1;;;;4.07;0;;;
HAR09;2018;12;4;23;57;39;;;;;;;;;;;;1;;;;4.07;0;;;
HAR09;2018;12;4;23;57;40;;;;;;;;;;;;1;;;;4.07;0;;;
HAR09;2018;12;4;23;57;41;;;;;;;;;;;;1;;;;4.06;0;;;
HAR09;2018;12;4;23;58;0;-37.854117;77.523950;0.9;40;4.06;18;;;;;;;;3751247S;07731437E;;0;;;
HAR09;2018;12;5;0;3;24;;;;;;;;;;;;1;;;;4.06;0;;;
HAR09;2018;12;5;0;3;25;;;;;;;;;;;;1;;;;4.06;0;;;
HAR09;2018;12;5;0;8;20;;;;;;;;;;;;1;;;;4.06;0;;;
HAR09;2018;12;5;0;8;21;;;;;;;;;;;;1;;;;4.06;0;;;
HAR09;2018;12;5;0;13;0;-37.854333;77.523850;0.0;13;4.06;17.5;;;;;;;;3751260S;07731431E;;0;;;
HAR09;2018;12;5;0;13;15;;;;;;;;;;;;1;;;;4.06;0;;;
HAR09;2018;12;5;0;13;16;;;;;;;;;;;;1;;;;4.06;0;;;
HAR09;2018;12;5;0;13;22;;;;;;;;;;;;1;;;;4.06;0;;;
HAR09;2018;12;5;0;13;23;;;;;;;;;;;;1;;;;4.06;0;;;
HAR09;2018;12;5;0;13;24;;;;;;;;;;;;1;;;;4.06;0;;;
HAR09;2018;12;5;0;18;45;;;;;;;;;;;;1;;;;4.06;0;;;
HAR09;2018;12;5;0;18;47;;;;;;;;;;;;1;;;;4.06;0;;;
HAR09;2018;12;5;0;23;39;;;;;;;;;;;;1;;;;4.06;0;;;
HAR09;2018;12;5;0;28;0;-37.853583;77.520300;24.;7;4.06;18;;;;;;;;3751215S;07731218E;;0;;;
HAR09;2018;12;5;0;44;0;-37.858850;77.505367;8.9;6;4.06;15;;;;;;;;3751531S;07730322E;;0;;;
HAR09;2018;12;5;0;59;0;-37.858267;77.526383;27.;6;4.07;13;;;;;;;;3751496S;07731583E;;0;;;
HAR09;2018;12;5;1;14;0;-37.856550;77.521750;29.;6;4.06;12.5;;;;;;;;3751393S;07731305E;;0;;;
HAR09;2018;12;5;1;14;40;;;;;;;;;;;;1;;;;4.05;0;;;
HAR09;2018;12;5;1;14;43;;;;;;;;;;;;1;;;;4.06;0;;;
HAR09;2018;12;5;1;30;0;-37.877133;77.538417;24.;6;4.07;15.5;;;;;;;;3752628S;07732305E;;0;;;
HAR09;2018;12;5;1;45;0;-37.856583;77.515183;34.;8;4.07;15.5;;;;;;;;3751395S;07730911E;;0;;;
HAR09;2018;12;5;2;0;0;-37.866733;77.537567;22.;22;4.07;15;;;;;;;;3752004S;07732254E;;0;;;
HAR09;2018;12;5;2;5;48;;;;;;;;;;;;1;;;;4.07;0;;;
HAR09;2018;12;5;2;5;49;;;;;;;;;;;;1;;;;4.07;0;;;
HAR09;2018;12;5;2;10;42;;;;;;;;;;;;1;;;;4.07;0;;;
HAR09;2018;12;5;2;10;43;;;;;;;;;;;;1;;;;4.07;0;;;
HAR09;2018;12;5;2;15;39;;;;;;;;;;;;1;;;;4.07;0;;;
HAR09;2018;12;5;2;15;40;;;;;;;;;;;;1;;;;4.07;0;;;
HAR09;2018;12;5;2;15;47;;;;;;;;;;;;1;;;;4.07;0;;;
HAR09;2018;12;5;2;15;48;;;;;;;;;;;;1;;;;4.07;0;;;
HAR09;2018;12;5;2;16;0;-37.854417;77.523783;0.1;20;4.07;19;;;;;;;;3751265S;07731427E;;0;;;
HAR09;2018;12;5;2;21;16;;;;;;;;;;;;1;;;;4.07;0;;;
HAR09;2018;12;5;2;26;10;;;;;;;;;;;;1;;;;4.07;0;;;
HAR09;2018;12;5;2;26;11;;;;;;;;;;;;1;;;;4.07;0;;;
HAR09;2018;12;5;2;31;8;;;;;;;;;;;;1;;;;4.07;0;;;
HAR09;2018;12;5;2;31;14;;;;;;;;;;;;1;;;;4.07;0;;;
HAR09;2018;12;5;2;31;15;;;;;;;;;;;;1;;;;4.07;0;;;
HAR09;2018;12;5;2;31;16;;;;;;;;;;;;1;;;;4.07;0;;;
HAR09;2018;12;5;2;33;0;-37.854467;77.523850;0.2;101;4.07;22.5;;;;;;;;3751268S;07731431E;;0;;;
HAR09;2018;12;5;2;38;1;;;;;;;;;;;;1;;;;4.06;0;;;
HAR09;2018;12;5;2;38;2;;;;;;;;;;;;1;;;;4.06;0;;;
HAR09;2018;12;5;2;42;58;;;;;;;;;;;;1;;;;4.06;0;;;
HAR09;2018;12;5;2;42;59;;;;;;;;;;;;1;;;;4.06;0;;;
HAR09;2018;12;5;2;47;52;;;;;;;;;;;;1;;;;4.06;0;;;
HAR09;2018;12;5;2;47;53;;;;;;;;;;;;1;;;;4.06;0;;;
HAR09;2018;12;5;2;48;0;;;;;;;;;;;;1;;;;4.06;0;;;
HAR09;2018;12;5;2;48;0;-37.854633;77.523800;1.0;17;4.06;27;;;;;;;;3751278S;07731428E;;0;;;
HAR09;2018;12;5;2;48;1;;;;;;;;;;;;1;;;;4.06;0;;;
HAR09;2018;12;5;2;48;2;;;;;;;;;;;;1;;;;4.06;0;;;
HAR09;2018;12;5;2;53;23;;;;;;;;;;;;1;;;;4.06;0;;;
HAR09;2018;12;5;2;53;24;;;;;;;;;;;;1;;;;4.05;0;;;
HAR09;2018;12;5;2;58;19;;;;;;;;;;;;1;;;;4.06;0;;;
HAR09;2018;12;5;2;58;20;;;;;;;;;;;;1;;;;4.05;0;;;
HAR09;2018;12;5;3;3;0;-37.854550;77.523867;0.2;8;4.06;27;;;;;;;;3751273S;07731432E;;0;;;
HAR09;2018;12;5;3;3;14;;;;;;;;;;;;1;;;;4.06;0;;;
HAR09;2018;12;5;3;3;15;;;;;;;;;;;;1;;;;4.06;0;;;
HAR09;2018;12;5;3;3;22;;;;;;;;;;;;1;;;;4.05;0;;;
HAR09;2018;12;5;3;3;23;;;;;;;;;;;;1;;;;4.06;0;;;
HAR09;2018;12;5;3;3;24;;;;;;;;;;;;1;;;;4.06;0;;;
HAR09;2018;12;5;3;8;39;;;;;;;;;;;;1;;;;4.06;0;;;
HAR09;2018;12;5;3;8;40;;;;;;;;;;;;1;;;;4.06;0;;;
HAR09;2018;12;5;3;13;35;;;;;;;;;;;;1;;;;4.06;0;;;
HAR09;2018;12;5;3;13;36;;;;;;;;;;;;1;;;;4.06;0;;;
HAR09;2018;12;5;3;18;29;;;;;;;;;;;;1;;;;4.06;0;;;
HAR09;2018;12;5;3;18;31;;;;;;;;;;;;1;;;;4.06;0;;;
HAR09;2018;12;5;3;18;37;;;;;;;;;;;;1;;;;4.06;0;;;
HAR09;2018;12;5;3;18;38;;;;;;;;;;;;1;;;;4.06;0;;;
HAR09;2018;12;5;3;18;39;;;;;;;;;;;;1;;;;4.06;0;;;
HAR09;2018;12;5;3;19;0;-37.854367;77.523850;0.1;17;4.06;29.5;;;;;;;;3751262S;07731431E;;0;;;
HAR09;2018;12;5;3;24;2;;;;;;;;;;;;1;;;;4.05;0;;;
HAR09;2018;12;5;3;24;3;;;;;;;;;;;;1;;;;4.06;0;;;
HAR09;2018;12;5;3;28;57;;;;;;;;;;;;1;;;;4.06;0;;;
HAR09;2018;12;5;3;28;58;;;;;;;;;;;;1;;;;4.05;0;;;
HAR09;2018;12;5;3;33;52;;;;;;;;;;;;1;;;;4.06;0;;;
HAR09;2018;12;5;3;33;53;;;;;;;;;;;;1;;;;4.06;0;;;
HAR09;2018;12;5;3;34;0;-37.854367;77.523833;0.2;17;4.06;29.5;;;;;;;;3751262S;07731430E;;0;;;
HAR09;2018;12;5;3;34;0;;;;;;;;;;;;1;;;;4.06;0;;;
HAR09;2018;12;5;3;34;1;;;;;;;;;;;;1;;;;4.05;0;;;
HAR09;2018;12;5;3;34;2;;;;;;;;;;;;1;;;;4.06;0;;;
HAR09;2018;12;5;3;39;25;;;;;;;;;;;;1;;;;4.05;0;;;
HAR09;2018;12;5;3;39;26;;;;;;;;;;;;1;;;;4.05;0;;;
HAR09;2018;12;5;3;44;20;;;;;;;;;;;;1;;;;4.05;0;;;
HAR09;2018;12;5;3;44;21;;;;;;;;;;;;1;;;;4.05;0;;;
HAR09;2018;12;5;3;49;0;-37.854333;77.523883;0.1;10;4.05;29;;;;;;;;3751260S;07731433E;;0;;;
HAR09;2018;12;5;3;49;17;;;;;;;;;;;;1;;;;4.06;0;;;
HAR09;2018;12;5;3;49;18;;;;;;;;;;;;1;;;;4.05;0;;;
HAR09;2018;12;5;3;49;24;;;;;;;;;;;;1;;;;4.05;0;;;
HAR09;2018;12;5;3;49;26;;;;;;;;;;;;1;;;;4.05;0;;;
HAR09;2018;12;5;3;54;45;;;;;;;;;;;;1;;;;4.05;0;;;
HAR09;2018;12;5;3;54;48;;;;;;;;;;;;1;;;;4.05;0;;;
HAR09;2018;12;5;3;59;38;;;;;;;;;;;;1;;;;4.05;0;;;
HAR09;2018;12;5;3;59;39;;;;;;;;;;;;1;;;;4.05;0;;;
HAR09;2018;12;5;4;4;0;-37.868400;77.507067;1.0;6;4.06;22;;;;;;;;3752104S;07730424E;;0;;;
HAR09;2018;12;5;4;20;0;-37.860300;77.534017;44.;9;4.07;17;;;;;;;;3751618S;07732041E;;0;;;
HAR09;2018;12;5;4;25;9;;;;;;;;;;;;1;;;;4.07;0;;;
HAR09;2018;12;5;4;25;10;;;;;;;;;;;;1;;;;4.07;0;;;
HAR09;2018;12;5;4;30;4;;;;;;;;;;;;1;;;;4.07;0;;;
HAR09;2018;12;5;4;30;5;;;;;;;;;;;;1;;;;4.07;0;;;
HAR09;2018;12;5;4;34;59;;;;;;;;;;;;1;;;;4.07;0;;;
HAR09;2018;12;5;4;35;0;-37.854667;77.523483;0.3;6;4.07;22;;;;;;;;3751280S;07731409E;;0;;;
HAR09;2018;12;5;4;35;0;;;;;;;;;;;;1;;;;4.07;0;;;
HAR09;2018;12;5;4;35;7;;;;;;;;;;;;1;;;;4.07;0;;;
HAR09;2018;12;5;4;35;8;;;;;;;;;;;;1;;;;4.07;0;;;
HAR09;2018;12;5;4;35;9;;;;;;;;;;;;1;;;;4.07;0;;;
HAR09;2018;12;5;4;40;21;;;;;;;;;;;;1;;;;4.07;0;;;
HAR09;2018;12;5;4;40;22;;;;;;;;;;;;1;;;;4.07;0;;;
HAR09;2018;12;5;4;45;18;;;;;;;;;;;;1;;;;4.07;0;;;
HAR09;2018;12;5;4;45;19;;;;;;;;;;;;1;;;;4.07;0;;;
HAR09;2018;12;5;4;50;0;-37.855850;77.522833;0.5;12;4.07;30;;;;;;;;3751351S;07731370E;;0;;;
HAR09;2018;12;5;4;50;12;;;;;;;;;;;;1;;;;4.07;0;;;
HAR09;2018;12;5;4;50;13;;;;;;;;;;;;1;;;;4.07;0;;;
HAR09;2018;12;5;4;50;20;;;;;;;;;;;;1;;;;4.07;0;;;
HAR09;2018;12;5;4;50;21;;;;;;;;;;;;1;;;;4.07;0;;;
HAR09;2018;12;5;4;50;22;;;;;;;;;;;;1;;;;4.07;0;;;
HAR09;2018;12;5;4;55;39;;;;;;;;;;;;1;;;;4.07;0;;;
HAR09;2018;12;5;4;55;40;;;;;;;;;;;;1;;;;4.07;0;;;
HAR09;2018;12;5;5;0;36;;;;;;;;;;;;1;;;;4.07;0;;;
HAR09;2018;12;5;5;0;37;;;;;;;;;;;;1;;;;4.07;0;;;
HAR09;2018;12;5;5;5;0;-37.856067;77.522767;0.2;11;4.07;32.5;;;;;;;;3751364S;07731366E;;0;;;
HAR09;2018;12;5;5;5;30;;;;;;;;;;;;1;;;;4.07;0;;;
HAR09;2018;12;5;5;5;31;;;;;;;;;;;;1;;;;4.07;0;;;
HAR09;2018;12;5;5;5;38;;;;;;;;;;;;1;;;;4.07;0;;;
HAR09;2018;12;5;5;5;39;;;;;;;;;;;;1;;;;4.07;0;;;
HAR09;2018;12;5;5;5;40;;;;;;;;;;;;1;;;;4.07;0;;;
HAR09;2018;12;5;5;10;56;;;;;;;;;;;;1;;;;4.07;0;;;
HAR09;2018;12;5;5;15;53;;;;;;;;;;;;1;;;;4.07;0;;;
HAR09;2018;12;5;5;15;54;;;;;;;;;;;;1;;;;4.07;0;;;
HAR09;2018;12;5;5;20;47;;;;;;;;;;;;1;;;;4.07;0;;;
HAR09;2018;12;5;5;20;48;;;;;;;;;;;;1;;;;4.07;0;;;
HAR09;2018;12;5;5;20;55;;;;;;;;;;;;1;;;;4.07;0;;;
HAR09;2018;12;5;5;20;56;;;;;;;;;;;;1;;;;4.07;0;;;
HAR09;2018;12;5;5;20;57;;;;;;;;;;;;1;;;;4.07;0;;;
HAR09;2018;12;5;5;21;0;-37.858483;77.524667;1.6;17;4.07;33.5;;;;;;;;3751509S;07731480E;;0;;;
HAR09;2018;12;5;5;26;22;;;;;;;;;;;;1;;;;4.07;0;;;
HAR09;2018;12;5;5;26;23;;;;;;;;;;;;1;;;;4.07;0;;;
HAR09;2018;12;5;5;31;15;;;;;;;;;;;;1;;;;4.07;0;;;
HAR09;2018;12;5;5;31;16;;;;;;;;;;;;1;;;;4.07;0;;;
HAR09;2018;12;5;5;36;0;-37.856133;77.524933;0.7;30;4.07;34.5;;;;;;;;3751368S;07731496E;;0;;;
HAR09;2018;12;5;5;36;11;;;;;;;;;;;;1;;;;4.07;0;;;
HAR09;2018;12;5;5;36;18;;;;;;;;;;;;1;;;;4.07;0;;;
HAR09;2018;12;5;5;36;19;;;;;;;;;;;;1;;;;4.07;0;;;
HAR09;2018;12;5;5;36;20;;;;;;;;;;;;1;;;;4.07;0;;;
HAR09;2018;12;5;5;41;55;;;;;;;;;;;;1;;;;4.07;0;;;
HAR09;2018;12;5;5;41;56;;;;;;;;;;;;1;;;;4.07;0;;;
HAR09;2018;12;5;5;46;55;;;;;;;;;;;;1;;;;4.07;0;;;
HAR09;2018;12;5;5;51;46;;;;;;;;;;;;1;;;;4.07;0;;;
HAR09;2018;12;5;5;51;54;;;;;;;;;;;;1;;;;4.07;0;;;
HAR09;2018;12;5;5;51;55;;;;;;;;;;;;1;;;;4.07;0;;;
HAR09;2018;12;5;5;51;56;;;;;;;;;;;;1;;;;4.07;0;;;
HAR09;2018;12;5;5;52;0;-37.853600;77.524233;1.1;29;4.07;34;;;;;;;;3751216S;07731454E;;0;;;
HAR09;2018;12;5;5;57;32;;;;;;;;;;;;1;;;;4.07;0;;;
HAR09;2018;12;5;5;57;33;;;;;;;;;;;;1;;;;4.07;0;;;
HAR09;2018;12;5;6;2;25;;;;;;;;;;;;1;;;;4.06;0;;;
HAR09;2018;12;5;6;2;27;;;;;;;;;;;;1;;;;4.07;0;;;
HAR09;2018;12;5;6;7;0;-37.854233;77.523883;0.0;17;4.07;35.5;;;;;;;;3751254S;07731433E;;0;;;
HAR09;2018;12;5;6;7;20;;;;;;;;;;;;1;;;;4.07;0;;;
HAR09;2018;12;5;6;7;32;;;;;;;;;;;;1;;;;4.06;0;;;
HAR09;2018;12;5;6;7;33;;;;;;;;;;;;1;;;;4.07;0;;;
HAR09;2018;12;5;6;12;56;;;;;;;;;;;;1;;;;4.06;0;;;
HAR09;2018;12;5;6;12;57;;;;;;;;;;;;1;;;;4.06;0;;;
HAR09;2018;12;5;6;22;46;;;;;;;;;;;;1;;;;4.07;0;;;
HAR09;2018;12;5;6;22;47;;;;;;;;;;;;1;;;;4.07;0;;;
HAR09;2018;12;5;6;22;54;;;;;;;;;;;;1;;;;4.07;0;;;
HAR09;2018;12;5;6;22;55;;;;;;;;;;;;1;;;;4.07;0;;;
HAR09;2018;12;5;6;22;56;;;;;;;;;;;;1;;;;4.06;0;;;
HAR09;2018;12;5;6;23;0;-37.854250;77.523867;0.7;40;4.06;37;;;;;;;;3751255S;07731432E;;0;;;
HAR09;2018;12;5;6;28;40;;;;;;;;;;;;1;;;;4.06;0;;;
HAR09;2018;12;5;6;28;42;;;;;;;;;;;;1;;;;4.06;0;;;
HAR09;2018;12;5;6;33;37;;;;;;;;;;;;1;;;;4.06;0;;;
HAR09;2018;12;5;6;38;31;;;;;;;;;;;;1;;;;4.06;0;;;
HAR09;2018;12;5;6;38;32;;;;;;;;;;;;1;;;;4.06;0;;;
HAR09;2018;12;5;6;38;39;;;;;;;;;;;;1;;;;4.06;0;;;
HAR09;2018;12;5;6;38;40;;;;;;;;;;;;1;;;;4.06;0;;;
HAR09;2018;12;5;6;38;41;;;;;;;;;;;;1;;;;4.06;0;;;
HAR09;2018;12;5;6;39;0;-37.854333;77.523900;0.2;33;4.06;37.5;;;;;;;;3751260S;07731434E;;0;;;
HAR09;2018;12;5;6;44;21;;;;;;;;;;;;1;;;;4.06;0;;;
HAR09;2018;12;5;6;44;22;;;;;;;;;;;;1;;;;4.06;0;;;
HAR09;2018;12;5;6;49;15;;;;;;;;;;;;1;;;;4.07;0;;;
HAR09;2018;12;5;6;49;16;;;;;;;;;;;;1;;;;4.06;0;;;
HAR09;2018;12;5;6;54;0;-37.854433;77.524400;0.6;10;4.06;38.5;;;;;;;;3751266S;07731464E;;0;;;
HAR09;2018;12;5;6;54;10;;;;;;;;;;;;1;;;;4.06;0;;;
HAR09;2018;12;5;6;54;11;;;;;;;;;;;;1;;;;4.06;0;;;
HAR09;2018;12;5;6;54;18;;;;;;;;;;;;1;;;;4.06;0;;;
HAR09;2018;12;5;6;54;19;;;;;;;;;;;;1;;;;4.06;0;;;
HAR09;2018;12;5;6;54;20;;;;;;;;;;;;1;;;;4.06;0;;;
HAR09;2018;12;5;6;59;36;;;;;;;;;;;;1;;;;4.07;0;;;
HAR09;2018;12;5;6;59;37;;;;;;;;;;;;1;;;;4.06;0;;;
HAR09;2018;12;5;7;4;31;;;;;;;;;;;;1;;;;4.07;0;;;
HAR09;2018;12;5;7;4;32;;;;;;;;;;;;1;;;;4.07;0;;;
HAR09;2018;12;5;7;9;0;-37.856550;77.527000;1.3;8;4.07;40.5;;;;;;;;3751393S;07731620E;;0;;;
HAR09;2018;12;5;7;9;26;;;;;;;;;;;;1;;;;4.07;0;;;
HAR09;2018;12;5;7;9;28;;;;;;;;;;;;1;;;;4.06;0;;;
HAR09;2018;12;5;7;9;35;;;;;;;;;;;;1;;;;4.07;0;;;
HAR09;2018;12;5;7;9;37;;;;;;;;;;;;1;;;;4.06;0;;;
HAR09;2018;12;5;7;9;38;;;;;;;;;;;;1;;;;4.07;0;;;
HAR09;2018;12;5;7;24;45;;;;;;;;;;;;1;;;;4.07;0;;;
HAR09;2018;12;5;7;24;46;;;;;;;;;;;;1;;;;4.07;0;;;
HAR09;2018;12;5;7;24;52;;;;;;;;;;;;1;;;;4.07;0;;;
HAR09;2018;12;5;7;24;53;;;;;;;;;;;;1;;;;4.07;0;;;
HAR09;2018;12;5;7;24;54;;;;;;;;;;;;1;;;;4.07;0;;;
HAR09;2018;12;5;7;25;0;-37.854483;77.524133;0.3;38;4.07;39.5;;;;;;;;3751269S;07731448E;;0;;;
HAR09;2018;12;5;7;30;38;;;;;;;;;;;;1;;;;4.06;0;;;
HAR09;2018;12;5;7;30;39;;;;;;;;;;;;1;;;;4.06;0;;;
HAR09;2018;12;5;7;35;33;;;;;;;;;;;;1;;;;4.06;0;;;
HAR09;2018;12;5;7;35;34;;;;;;;;;;;;1;;;;4.06;0;;;
HAR09;2018;12;5;7;40;0;-37.854433;77.524083;0.4;13;4.06;37.5;;;;;;;;3751266S;07731445E;;0;;;
HAR09;2018;12;5;7;40;28;;;;;;;;;;;;1;;;;4.06;0;;;
HAR09;2018;12;5;7;40;29;;;;;;;;;;;;1;;;;4.06;0;;;
HAR09;2018;12;5;7;40;36;;;;;;;;;;;;1;;;;4.06;0;;;
HAR09;2018;12;5;7;40;37;;;;;;;;;;;;1;;;;4.07;0;;;
HAR09;2018;12;5;7;40;38;;;;;;;;;;;;1;;;;4.06;0;;;
HAR09;2018;12;5;7;45;55;;;;;;;;;;;;1;;;;4.06;0;;;
HAR09;2018;12;5;7;45;56;;;;;;;;;;;;1;;;;4.06;0;;;
HAR09;2018;12;5;7;50;52;;;;;;;;;;;;1;;;;4.07;0;;;
HAR09;2018;12;5;7;50;53;;;;;;;;;;;;1;;;;4.07;0;;;
HAR09;2018;12;5;7;55;46;;;;;;;;;;;;1;;;;4.07;0;;;
HAR09;2018;12;5;7;55;47;;;;;;;;;;;;1;;;;4.07;0;;;
HAR09;2018;12;5;7;55;54;;;;;;;;;;;;1;;;;4.07;0;;;
HAR09;2018;12;5;7;55;55;;;;;;;;;;;;1;;;;4.06;0;;;
HAR09;2018;12;5;7;55;56;;;;;;;;;;;;1;;;;4.06;0;;;
HAR09;2018;12;5;7;56;0;-37.854417;77.523883;0.3;28;4.06;38;;;;;;;;3751265S;07731433E;;0;;;
HAR09;2018;12;5;8;6;30;;;;;;;;;;;;1;;;;4.06;0;;;
HAR09;2018;12;5;8;11;20;;;;;;;;;;;;1;;;;4.06;0;;;
HAR09;2018;12;5;8;11;21;;;;;;;;;;;;1;;;;4.06;0;;;
HAR09;2018;12;5;8;11;32;;;;;;;;;;;;1;;;;4.06;0;;;
HAR09;2018;12;5;8;11;33;;;;;;;;;;;;1;;;;4.06;0;;;
HAR09;2018;12;5;8;11;34;;;;;;;;;;;;1;;;;4.06;0;;;
HAR09;2018;12;5;8;12;0;-37.854500;77.523833;0.8;39;4.06;41;;;;;;;;3751270S;07731430E;;0;;;
HAR09;2018;12;5;8;17;19;;;;;;;;;;;;1;;;;4.06;0;;;
HAR09;2018;12;5;8;17;20;;;;;;;;;;;;1;;;;4.06;0;;;
HAR09;2018;12;5;8;22;14;;;;;;;;;;;;1;;;;4.06;0;;;
HAR09;2018;12;5;8;22;15;;;;;;;;;;;;1;;;;4.06;0;;;
HAR09;2018;12;5;8;27;0;-37.854567;77.523750;0.7;6;4.06;42;;;;;;;;3751274S;07731425E;;0;;;
HAR09;2018;12;5;8;27;9;;;;;;;;;;;;1;;;;4.06;0;;;
HAR09;2018;12;5;8;27;10;;;;;;;;;;;;1;;;;4.06;0;;;
HAR09;2018;12;5;8;27;17;;;;;;;;;;;;1;;;;4.06;0;;;
HAR09;2018;12;5;8;27;18;;;;;;;;;;;;1;;;;4.06;0;;;
HAR09;2018;12;5;8;27;19;;;;;;;;;;;;1;;;;4.06;0;;;
HAR09;2018;12;5;8;32;29;;;;;;;;;;;;1;;;;4.06;0;;;
HAR09;2018;12;5;8;32;30;;;;;;;;;;;;1;;;;4.06;0;;;
HAR09;2018;12;5;8;37;26;;;;;;;;;;;;1;;;;4.06;0;;;
HAR09;2018;12;5;8;37;27;;;;;;;;;;;;1;;;;4.06;0;;;
HAR09;2018;12;5;8;42;20;;;;;;;;;;;;1;;;;4.06;0;;;
HAR09;2018;12;5;8;42;22;;;;;;;;;;;;1;;;;4.06;0;;;
HAR09;2018;12;5;8;42;28;;;;;;;;;;;;1;;;;4.06;0;;;
HAR09;2018;12;5;8;42;29;;;;;;;;;;;;1;;;;4.06;0;;;
HAR09;2018;12;5;8;42;30;;;;;;;;;;;;1;;;;4.06;0;;;
HAR09;2018;12;5;8;43;0;-37.854467;77.523833;0.0;24;4.06;40;;;;;;;;3751268S;07731430E;;0;;;
HAR09;2018;12;5;8;48;2;;;;;;;;;;;;1;;;;4.06;0;;;
HAR09;2018;12;5;8;48;3;;;;;;;;;;;;1;;;;4.06;0;;;
HAR09;2018;12;5;8;52;55;;;;;;;;;;;;1;;;;4.06;0;;;
HAR09;2018;12;5;8;52;56;;;;;;;;;;;;1;;;;4.06;0;;;
HAR09;2018;12;5;8;57;50;;;;;;;;;;;;1;;;;4.06;0;;;
HAR09;2018;12;5;8;57;51;;;;;;;;;;;;1;;;;4.06;0;;;
HAR09;2018;12;5;8;57;58;;;;;;;;;;;;1;;;;4.06;0;;;
HAR09;2018;12;5;8;57;59;;;;;;;;;;;;1;;;;4.06;0;;;
HAR09;2018;12;5;8;58;0;-37.854450;77.523833;1.7;12;4.06;37.5;;;;;;;;3751267S;07731430E;;0;;;
HAR09;2018;12;5;8;58;0;;;;;;;;;;;;1;;;;4.06;0;;;
HAR09;2018;12;5;9;3;18;;;;;;;;;;;;1;;;;4.06;0;;;
HAR09;2018;12;5;9;3;19;;;;;;;;;;;;1;;;;4.06;0;;;
HAR09;2018;12;5;9;8;13;;;;;;;;;;;;1;;;;4.07;0;;;
HAR09;2018;12;5;9;8;14;;;;;;;;;;;;1;;;;4.06;0;;;
HAR09;2018;12;5;9;13;0;-37.860550;77.502567;18.;7;4.07;29;;;;;;;;3751633S;07730154E;;0;;;
HAR09;2018;12;5;9;28;0;-37.854983;77.515867;24.;8;4.08;23;;;;;;;;3751299S;07730952E;;0;;;
HAR09;2018;12;5;9;44;0;-37.872017;77.534533;23.;8;4.1;20.5;;;;;;;;3752321S;07732072E;;0;;;
HAR09;2018;12;5;9;53;56;;;;;;;;;;;;1;;;;4.11;0;;;
HAR09;2018;12;5;9;58;49;;;;;;;;;;;;1;;;;4.11;0;;;
HAR09;2018;12;5;9;58;50;;;;;;;;;;;;1;;;;4.11;0;;;
HAR09;2018;12;5;9;58;57;;;;;;;;;;;;1;;;;4.11;0;;;
HAR09;2018;12;5;9;58;58;;;;;;;;;;;;1;;;;4.11;0;;;
HAR09;2018;12;5;9;58;59;;;;;;;;;;;;1;;;;4.11;0;;;
HAR09;2018;12;5;9;59;0;-37.854800;77.523617;10.;9;4.11;22;;;;;;;;3751288S;07731417E;;0;;;
HAR09;2018;12;5;10;4;13;;;;;;;;;;;;1;;;;4.11;0;;;
HAR09;2018;12;5;10;4;14;;;;;;;;;;;;1;;;;4.11;0;;;
HAR09;2018;12;5;10;9;10;;;;;;;;;;;;1;;;;4.11;0;;;
HAR09;2018;12;5;10;9;11;;;;;;;;;;;;1;;;;4.11;0;;;
HAR09;2018;12;5;10;14;0;-37.855267;77.524083;3.0;7;4.11;29.5;;;;;;;;3751316S;07731445E;;0;;;
HAR09;2018;12;5;10;14;4;;;;;;;;;;;;1;;;;4.11;0;;;
HAR09;2018;12;5;10;14;5;;;;;;;;;;;;1;;;;4.11;0;;;
HAR09;2018;12;5;10;14;12;;;;;;;;;;;;1;;;;4.11;0;;;
HAR09;2018;12;5;10;14;13;;;;;;;;;;;;1;;;;4.11;0;;;
HAR09;2018;12;5;10;14;14;;;;;;;;;;;;1;;;;4.11;0;;;
HAR09;2018;12;5;10;19;26;;;;;;;;;;;;1;;;;4.11;0;;;
HAR09;2018;12;5;10;19;27;;;;;;;;;;;;1;;;;4.11;0;;;
HAR09;2018;12;5;10;24;23;;;;;;;;;;;;1;;;;4.11;0;;;
HAR09;2018;12;5;10;24;24;;;;;;;;;;;;1;;;;4.11;0;;;
HAR09;2018;12;5;10;29;0;-37.855383;77.524033;0.5;18;4.11;32;;;;;;;;3751323S;07731442E;;0;;;
HAR09;2018;12;5;10;29;17;;;;;;;;;;;;1;;;;4.11;0;;;
HAR09;2018;12;5;10;29;18;;;;;;;;;;;;1;;;;4.11;0;;;
HAR09;2018;12;5;10;29;25;;;;;;;;;;;;1;;;;4.11;0;;;
HAR09;2018;12;5;10;29;26;;;;;;;;;;;;1;;;;4.11;0;;;
HAR09;2018;12;5;10;29;27;;;;;;;;;;;;1;;;;4.11;0;;;
HAR09;2018;12;5;10;34;52;;;;;;;;;;;;1;;;;4.11;0;;;
HAR09;2018;12;5;10;34;53;;;;;;;;;;;;1;;;;4.1;0;;;
HAR09;2018;12;5;10;39;47;;;;;;;;;;;;1;;;;4.11;0;;;
HAR09;2018;12;5;10;39;48;;;;;;;;;;;;1;;;;4.1;0;;;
HAR09;2018;12;5;10;44;42;;;;;;;;;;;;1;;;;4.11;0;;;
HAR09;2018;12;5;10;44;43;;;;;;;;;;;;1;;;;4.11;0;;;
HAR09;2018;12;5;10;44;50;;;;;;;;;;;;1;;;;4.11;0;;;
HAR09;2018;12;5;10;44;51;;;;;;;;;;;;1;;;;4.1;0;;;
HAR09;2018;12;5;10;44;52;;;;;;;;;;;;1;;;;4.11;0;;;
HAR09;2018;12;5;10;45;0;-37.854650;77.524033;0.3;17;4.11;34;;;;;;;;3751279S;07731442E;;0;;;
HAR09;2018;12;5;10;50;16;;;;;;;;;;;;1;;;;4.1;0;;;
HAR09;2018;12;5;10;50;17;;;;;;;;;;;;1;;;;4.1;0;;;
HAR09;2018;12;5;10;55;12;;;;;;;;;;;;1;;;;4.11;0;;;
HAR09;2018;12;5;10;55;13;;;;;;;;;;;;1;;;;4.1;0;;;
HAR09;2018;12;5;11;0;0;-37.854750;77.523500;0.3;13;4.11;35;;;;;;;;3751285S;07731410E;;0;;;
HAR09;2018;12;5;11;0;6;;;;;;;;;;;;1;;;;4.11;0;;;
HAR09;2018;12;5;11;0;7;;;;;;;;;;;;1;;;;4.11;0;;;
HAR09;2018;12;5;11;0;14;;;;;;;;;;;;1;;;;4.11;0;;;
HAR09;2018;12;5;11;0;15;;;;;;;;;;;;1;;;;4.11;0;;;
HAR09;2018;12;5;11;0;16;;;;;;;;;;;;1;;;;4.11;0;;;
HAR09;2018;12;5;11;5;34;;;;;;;;;;;;1;;;;4.11;0;;;
HAR09;2018;12;5;11;5;35;;;;;;;;;;;;1;;;;4.11;0;;;
HAR09;2018;12;5;11;10;29;;;;;;;;;;;;1;;;;4.11;0;;;
HAR09;2018;12;5;11;10;30;;;;;;;;;;;;1;;;;4.11;0;;;
HAR09;2018;12;5;11;15;0;-37.854500;77.524017;0.2;16;4.11;34;;;;;;;;3751270S;07731441E;;0;;;
HAR09;2018;12;5;11;15;24;;;;;;;;;;;;1;;;;4.11;0;;;
HAR09;2018;12;5;11;15;25;;;;;;;;;;;;1;;;;4.11;0;;;
HAR09;2018;12;5;11;15;32;;;;;;;;;;;;1;;;;4.11;0;;;
HAR09;2018;12;5;11;15;33;;;;;;;;;;;;1;;;;4.11;0;;;
HAR09;2018;12;5;11;15;34;;;;;;;;;;;;1;;;;4.11;0;;;
HAR09;2018;12;5;11;20;55;;;;;;;;;;;;1;;;;4.11;0;;;
HAR09;2018;12;5;11;20;56;;;;;;;;;;;;1;;;;4.1;0;;;
HAR09;2018;12;5;11;25;53;;;;;;;;;;;;1;;;;4.11;0;;;
HAR09;2018;12;5;11;25;54;;;;;;;;;;;;1;;;;4.11;0;;;
HAR09;2018;12;5;11;31;0;-37.854383;77.523800;0.3;26;4.11;34;;;;;;;;3751263S;07731428E;;0;;;
HAR09;2018;12;5;11;36;29;;;;;;;;;;;;1;;;;4.11;0;;;
HAR09;2018;12;5;11;36;30;;;;;;;;;;;;1;;;;4.11;0;;;
HAR09;2018;12;5;11;41;26;;;;;;;;;;;;1;;;;4.11;0;;;
HAR09;2018;12;5;11;41;27;;;;;;;;;;;;1;;;;4.11;0;;;
HAR09;2018;12;5;11;46;0;-37.854500;77.523833;0.6;15;4.11;36.5;;;;;;;;3751270S;07731430E;;0;;;
HAR09;2018;12;5;11;46;20;;;;;;;;;;;;1;;;;4.11;0;;;
HAR09;2018;12;5;11;46;21;;;;;;;;;;;;1;;;;4.11;0;;;
HAR09;2018;12;5;11;46;28;;;;;;;;;;;;1;;;;4.11;0;;;
HAR09;2018;12;5;11;46;29;;;;;;;;;;;;1;;;;4.11;0;;;
HAR09;2018;12;5;11;46;30;;;;;;;;;;;;1;;;;4.11;0;;;
HAR09;2018;12;5;11;51;51;;;;;;;;;;;;1;;;;4.11;0;;;
HAR09;2018;12;5;11;51;52;;;;;;;;;;;;1;;;;4.11;0;;;
HAR09;2018;12;5;11;56;46;;;;;;;;;;;;1;;;;4.11;0;;;
HAR09;2018;12;5;11;56;47;;;;;;;;;;;;1;;;;4.11;0;;;
HAR09;2018;12;5;12;1;41;;;;;;;;;;;;1;;;;4.11;0;;;
HAR09;2018;12;5;12;1;42;;;;;;;;;;;;1;;;;4.11;0;;;
HAR09;2018;12;5;12;1;49;;;;;;;;;;;;1;;;;4.11;0;;;
HAR09;2018;12;5;12;1;50;;;;;;;;;;;;1;;;;4.11;0;;;
HAR09;2018;12;5;12;1;51;;;;;;;;;;;;1;;;;4.11;0;;;
HAR09;2018;12;5;12;2;0;-37.854367;77.523783;0.1;29;4.11;38;;;;;;;;3751262S;07731427E;;0;;;
HAR09;2018;12;5;12;7;24;;;;;;;;;;;;1;;;;4.11;0;;;
HAR09;2018;12;5;12;7;26;;;;;;;;;;;;1;;;;4.11;0;;;
HAR09;2018;12;5;12;12;20;;;;;;;;;;;;1;;;;4.11;0;;;
HAR09;2018;12;5;12;12;21;;;;;;;;;;;;1;;;;4.11;0;;;
HAR09;2018;12;5;12;17;0;-37.854433;77.523917;1.2;17;4.11;30.5;;;;;;;;3751266S;07731435E;;0;;;
HAR09;2018;12;5;12;17;15;;;;;;;;;;;;1;;;;4.11;0;;;
HAR09;2018;12;5;12;17;16;;;;;;;;;;;;1;;;;4.11;0;;;
HAR09;2018;12;5;12;17;23;;;;;;;;;;;;1;;;;4.11;0;;;
HAR09;2018;12;5;12;17;24;;;;;;;;;;;;1;;;;4.11;0;;;
HAR09;2018;12;5;12;17;25;;;;;;;;;;;;1;;;;4.11;0;;;
HAR09;2018;12;5;12;22;47;;;;;;;;;;;;1;;;;4.11;0;;;
HAR09;2018;12;5;12;22;48;;;;;;;;;;;;1;;;;4.11;0;;;
HAR09;2018;12;5;12;27;44;;;;;;;;;;;;1;;;;4.11;0;;;
HAR09;2018;12;5;12;27;45;;;;;;;;;;;;1;;;;4.11;0;;;
HAR09;2018;12;5;12;32;38;;;;;;;;;;;;1;;;;4.11;0;;;
HAR09;2018;12;5;12;32;39;;;;;;;;;;;;1;;;;4.11;0;;;
HAR09;2018;12;5;12;32;46;;;;;;;;;;;;1;;;;4.11;0;;;
HAR09;2018;12;5;12;32;47;;;;;;;;;;;;1;;;;4.11;0;;;
HAR09;2018;12;5;12;32;48;;;;;;;;;;;;1;;;;4.11;0;;;
HAR09;2018;12;5;12;33;0;-37.854367;77.523917;1.0;26;4.11;26.5;;;;;;;;3751262S;07731435E;;0;;;
HAR09;2018;12;5;12;38;20;;;;;;;;;;;;1;;;;4.11;0;;;
HAR09;2018;12;5;12;38;21;;;;;;;;;;;;1;;;;4.1;0;;;
HAR09;2018;12;5;12;43;15;;;;;;;;;;;;1;;;;4.11;0;;;
HAR09;2018;12;5;12;43;16;;;;;;;;;;;;1;;;;4.11;0;;;
HAR09;2018;12;5;12;48;0;-37.854267;77.523567;0.9;14;4.11;26;;;;;;;;3751256S;07731414E;;0;;;
HAR09;2018;12;5;12;48;10;;;;;;;;;;;;1;;;;4.11;0;;;
HAR09;2018;12;5;12;48;11;;;;;;;;;;;;1;;;;4.11;0;;;
HAR09;2018;12;5;12;48;18;;;;;;;;;;;;1;;;;4.11;0;;;
HAR09;2018;12;5;12;48;19;;;;;;;;;;;;1;;;;4.1;0;;;
HAR09;2018;12;5;12;48;20;;;;;;;;;;;;1;;;;4.11;0;;;
HAR09;2018;12;5;12;53;39;;;;;;;;;;;;1;;;;4.1;0;;;
HAR09;2018;12;5;12;53;40;;;;;;;;;;;;1;;;;4.1;0;;;
HAR09;2018;12;5;12;58;36;;;;;;;;;;;;1;;;;4.11;0;;;
HAR09;2018;12;5;12;58;37;;;;;;;;;;;;1;;;;4.1;0;;;
HAR09;2018;12;5;13;3;30;;;;;;;;;;;;1;;;;4.11;0;;;
HAR09;2018;12;5;13;3;31;;;;;;;;;;;;1;;;;4.1;0;;;
HAR09;2018;12;5;13;3;38;;;;;;;;;;;;1;;;;4.11;0;;;
HAR09;2018;12;5;13;3;39;;;;;;;;;;;;1;;;;4.1;0;;;
HAR09;2018;12;5;13;3;40;;;;;;;;;;;;1;;;;4.1;0;;;
HAR09;2018;12;5;13;4;0;-37.854433;77.523833;0.9;30;4.1;24.5;;;;;;;;3751266S;07731430E;;0;;;
HAR09;2018;12;5;13;9;15;;;;;;;;;;;;1;;;;4.1;0;;;
HAR09;2018;12;5;13;9;16;;;;;;;;;;;;1;;;;4.1;0;;;
HAR09;2018;12;5;13;14;11;;;;;;;;;;;;1;;;;4.1;0;;;
HAR09;2018;12;5;13;14;12;;;;;;;;;;;;1;;;;4.1;0;;;
HAR09;2018;12;5;13;19;0;-37.854000;77.523883;0.7;10;4.1;23;;;;;;;;3751240S;07731433E;;0;;;
HAR09;2018;12;5;13;19;6;;;;;;;;;;;;1;;;;4.1;0;;;
HAR09;2018;12;5;13;19;7;;;;;;;;;;;;1;;;;4.1;0;;;
HAR09;2018;12;5;13;19;14;;;;;;;;;;;;1;;;;4.1;0;;;
HAR09;2018;12;5;13;19;15;;;;;;;;;;;;1;;;;4.1;0;;;
HAR09;2018;12;5;13;19;16;;;;;;;;;;;;1;;;;4.1;0;;;
HAR09;2018;12;5;13;24;32;;;;;;;;;;;;1;;;;4.1;0;;;
HAR09;2018;12;5;13;29;28;;;;;;;;;;;;1;;;;4.1;0;;;
HAR09;2018;12;5;13;29;29;;;;;;;;;;;;1;;;;4.1;0;;;
HAR09;2018;12;5;13;34;0;-37.854083;77.523833;0.2;8;4.1;21.5;;;;;;;;3751245S;07731430E;;0;;;
HAR09;2018;12;5;13;34;22;;;;;;;;;;;;1;;;;4.1;0;;;
HAR09;2018;12;5;13;34;23;;;;;;;;;;;;1;;;;4.1;0;;;
HAR09;2018;12;5;13;34;30;;;;;;;;;;;;1;;;;4.1;0;;;
HAR09;2018;12;5;13;34;31;;;;;;;;;;;;1;;;;4.1;0;;;
HAR09;2018;12;5;13;34;32;;;;;;;;;;;;1;;;;4.1;0;;;
HAR09;2018;12;5;13;50;0;-37.912033;77.598317;12.;7;4.1;16.5;;;;;;;;3754722S;07735899E;;0;;;
HAR09;2018;12;5;14;5;0;-37.954417;77.683100;28.;6;4.1;16;;;;;;;;3757265S;07740986E;;0;;;
HAR09;2018;12;5;14;20;0;-37.995950;77.771250;26.;7;4.1;16;;;;;;;;3759757S;07746275E;;0;;;
HAR09;2018;12;5;14;35;0;-38.034883;77.860550;26.;7;4.1;16;;;;;;;;3802093S;07751633E;;0;;;
HAR09;2018;12;5;14;50;0;-38.055317;77.948433;2.0;9;4.1;15.5;;;;;;;;3803319S;07756906E;;0;;;
HAR09;2018;12;5;15;6;0;-38.054883;77.953300;0.5;7;4.1;16.5;;;;;;;;3803293S;07757198E;;0;;;
HAR09;2018;12;5;15;21;0;-38.054483;77.957800;1.2;8;4.1;17;;;;;;;;3803269S;07757468E;;0;;;
HAR09;2018;12;5;15;36;0;-38.054400;77.964350;1.0;8;4.09;17.5;;;;;;;;3803264S;07757861E;;0;;;
HAR09;2018;12;5;15;51;0;-38.053833;77.967667;0.4;8;4.09;17.5;;;;;;;;3803230S;07758060E;;0;;;
HAR09;2018;12;5;16;7;0;-38.053750;77.970933;0.5;38;4.09;17.5;;;;;;;;3803225S;07758256E;;0;;;
HAR09;2018;12;5;16;22;0;-38.053650;77.974183;1.1;4;4.09;16.5;;;;;;;;3803219S;07758451E;;0;;;
HAR09;2018;12;5;16;37;0;-38.053683;77.977617;2.8;4;4.09;17;;;;;;;;3803221S;07758657E;;0;;;
HAR09;2018;12;5;16;53;0;-38.053783;77.981317;0.6;5;4.09;17.5;;;;;;;;3803227S;07758879E;;0;;;
HAR09;2018;12;5;17;8;0;-38.054250;77.985183;0.8;5;4.08;17.5;;;;;;;;3803255S;07759111E;;0;;;
HAR09;2018;12;5;17;23;0;-38.054867;77.988800;2.9;6;4.09;17.5;;;;;;;;3803292S;07759328E;;0;;;
HAR09;2018;12;5;17;38;0;-38.055450;77.992683;2.3;8;4.08;17.5;;;;;;;;3803327S;07759561E;;0;;;
HAR09;2018;12;5;17;53;0;-38.055500;77.996350;5.5;4;4.08;17;;;;;;;;3803330S;07759781E;;0;;;
HAR09;2018;12;5;18;9;0;-38.055867;78.000100;0.4;14;4.08;17;;;;;;;;3803352S;07800006E;;0;;;
HAR09;2018;12;5;18;24;0;-38.055950;78.004100;1.2;6;4.08;17.5;;;;;;;;3803357S;07800246E;;0;;;
HAR09;2018;12;5;18;39;0;-38.056150;78.007517;0.7;11;4.08;17;;;;;;;;3803369S;07800451E;;0;;;
HAR09;2018;12;5;18;54;0;-38.056067;78.010867;0.2;10;4.08;17;;;;;;;;3803364S;07800652E;;0;;;
HAR09;2018;12;5;19;10;0;-38.056200;78.014517;0.7;16;4.08;17;;;;;;;;3803372S;07800871E;;0;;;
HAR09;2018;12;5;19;25;0;-38.056900;78.018467;0.6;35;4.08;17;;;;;;;;3803414S;07801108E;;0;;;
HAR09;2018;12;5;19;41;0;-38.057450;78.022383;1.4;4;4.08;17;;;;;;;;3803447S;07801343E;;0;;;
HAR09;2018;12;5;19;56;0;-38.057417;78.027067;0.9;5;4.08;17;;;;;;;;3803445S;07801624E;;0;;;
HAR09;2018;12;5;20;11;0;-38.057667;78.031400;0.8;6;4.08;17;;;;;;;;3803460S;07801884E;;0;;;
HAR09;2018;12;5;20;26;0;-38.057683;78.035217;1.4;6;4.08;17.5;;;;;;;;3803461S;07802113E;;0;;;
HAR09;2018;12;5;20;41;0;-38.056967;78.039200;2.0;7;4.08;17.5;;;;;;;;3803418S;07802352E;;0;;;
HAR09;2018;12;5;20;57;0;-38.056667;78.043100;1.0;9;4.08;17;;;;;;;;3803400S;07802586E;;0;;;
HAR09;2018;12;5;21;12;0;-38.056267;78.047050;0.8;7;4.08;17;;;;;;;;3803376S;07802823E;;0;;;
HAR09;2018;12;5;21;27;0;-38.056267;78.050783;0.2;9;4.08;17;;;;;;;;3803376S;07803047E;;0;;;
HAR09;2018;12;5;21;42;0;-38.056050;78.054167;1.1;6;4.07;17;;;;;;;;3803363S;07803250E;;0;;;
HAR09;2018;12;5;21;57;0;-38.055967;78.057300;0.5;6;4.07;17;;;;;;;;3803358S;07803438E;;0;;;
HAR09;2018;12;5;22;13;0;-38.055750;78.060333;0.6;16;4.07;16.5;;;;;;;;3803345S;07803620E;;0;;;
HAR09;2018;12;5;22;28;0;-38.056250;78.063333;0.5;11;4.07;16.5;;;;;;;;3803375S;07803800E;;0;;;
HAR09;2018;12;5;22;43;0;-38.054300;78.065833;18.;6;4.07;16;;;;;;;;3803258S;07803950E;;0;;;
HAR09;2018;12;5;22;59;0;-38.066633;78.072117;24.;7;4.07;15.5;;;;;;;;3803998S;07804327E;;0;;;
HAR09;2018;12;5;23;14;0;-38.035250;78.062450;20.;8;4.07;15;;;;;;;;3802115S;07803747E;;0;;;
HAR09;2018;12;5;23;29;0;-38.018717;78.000050;19.;8;4.07;15;;;;;;;;3801123S;07800003E;;0;;;
HAR09;2018;12;5;23;44;0;-37.974717;77.934417;17.;8;4.07;14.5;;;;;;;;3758483S;07756065E;;0;;;
HAR09;2018;12;6;0;0;0;-37.950667;77.917783;19.;10;4.07;15;;;;;;;;3757040S;07755067E;;0;;;
HAR09;2018;12;6;0;15;0;-37.903967;77.850067;19.;10;4.07;14;;;;;;;;3754238S;07751004E;;0;;;
HAR09;2018;12;6;0;30;0;-37.885167;77.765117;21.;12;4.07;14;;;;;;;;3753110S;07745907E;;0;;;
HAR09;2018;12;6;0;45;0;-37.872333;77.713867;21.;8;4.07;15;;;;;;;;3752340S;07742832E;;0;;;
HAR09;2018;12;6;1;1;0;-37.854083;77.628617;19.;8;4.07;16;;;;;;;;3751245S;07737717E;;0;;;
HAR09;2018;12;6;1;16;0;-37.882367;77.559500;23.;7;4.07;16.5;;;;;;;;3752942S;07733570E;;0;;;
HAR09;2018;12;6;1;31;0;-37.854483;77.523517;0.9;13;4.06;16;;;;;;;;3751269S;07731411E;;0;;;
HAR09;2018;12;6;1;31;15;;;;;;;;;;;;1;;;;4.06;0;;;
HAR09;2018;12;6;1;31;16;;;;;;;;;;;;1;;;;4.06;0;;;
HAR09;2018;12;6;1;31;18;;;;;;;;;;;;1;;;;4.06;0;;;
HAR09;2018;12;6;1;31;19;;;;;;;;;;;;1;;;;4.06;0;;;
HAR09;2018;12;6;1;31;21;;;;;;;;;;;;1;;;;4.06;0;;;
HAR09;2018;12;6;1;36;39;;;;;;;;;;;;1;;;;4.06;0;;;
HAR09;2018;12;6;1;36;40;;;;;;;;;;;;1;;;;4.06;0;;;
HAR09;2018;12;6;1;41;35;;;;;;;;;;;;1;;;;4.07;0;;;
HAR09;2018;12;6;1;41;36;;;;;;;;;;;;1;;;;4.06;0;;;
HAR09;2018;12;6;1;46;0;-37.854500;77.523750;0.5;7;4.06;20;;;;;;;;3751270S;07731425E;;0;;;
HAR09;2018;12;6;1;46;30;;;;;;;;;;;;1;;;;4.06;0;;;
HAR09;2018;12;6;1;46;31;;;;;;;;;;;;1;;;;4.06;0;;;
HAR09;2018;12;6;1;46;38;;;;;;;;;;;;1;;;;4.07;0;;;
HAR09;2018;12;6;1;46;39;;;;;;;;;;;;1;;;;4.06;0;;;
HAR09;2018;12;6;1;46;40;;;;;;;;;;;;1;;;;4.06;0;;;
HAR09;2018;12;6;1;51;55;;;;;;;;;;;;1;;;;4.06;0;;;
HAR09;2018;12;6;1;51;56;;;;;;;;;;;;1;;;;4.06;0;;;
HAR09;2018;12;6;1;56;51;;;;;;;;;;;;1;;;;4.06;0;;;
HAR09;2018;12;6;1;56;52;;;;;;;;;;;;1;;;;4.06;0;;;
HAR09;2018;12;6;2;1;46;;;;;;;;;;;;1;;;;4.06;0;;;
HAR09;2018;12;6;2;1;47;;;;;;;;;;;;1;;;;4.06;0;;;
HAR09;2018;12;6;2;1;54;;;;;;;;;;;;1;;;;4.06;0;;;
HAR09;2018;12;6;2;1;55;;;;;;;;;;;;1;;;;4.06;0;;;
HAR09;2018;12;6;2;1;56;;;;;;;;;;;;1;;;;4.06;0;;;
HAR09;2018;12;6;2;2;0;-37.854183;77.524067;0.1;7;4.06;21.5;;;;;;;;3751251S;07731444E;;0;;;
HAR09;2018;12;6;2;7;9;;;;;;;;;;;;1;;;;4.06;0;;;
HAR09;2018;12;6;2;12;4;;;;;;;;;;;;1;;;;4.06;0;;;
HAR09;2018;12;6;2;12;5;;;;;;;;;;;;1;;;;4.06;0;;;
HAR09;2018;12;6;2;16;58;;;;;;;;;;;;1;;;;4.07;0;;;
HAR09;2018;12;6;2;16;59;;;;;;;;;;;;1;;;;4.06;0;;;
HAR09;2018;12;6;2;17;0;-37.854183;77.523383;12.;9;4.06;18;;;;;;;;3751251S;07731403E;;0;;;
HAR09;2018;12;6;2;17;6;;;;;;;;;;;;1;;;;4.06;0;;;
HAR09;2018;12;6;2;17;7;;;;;;;;;;;;1;;;;4.06;0;;;
HAR09;2018;12;6;2;17;8;;;;;;;;;;;;1;;;;4.06;0;;;
HAR09;2018;12;6;2;22;23;;;;;;;;;;;;1;;;;4.06;0;;;
HAR09;2018;12;6;2;22;24;;;;;;;;;;;;1;;;;4.06;0;;;
HAR09;2018;12;6;2;32;0;-37.892517;77.548983;13.;8;4.07;18;;;;;;;;3753551S;07732939E;;0;;;
HAR09;2018;12;6;2;47;0;-37.872100;77.512150;45.;7;4.07;14.5;;;;;;;;3752326S;07730729E;;0;;;
HAR09;2018;12;6;3;3;0;-37.931933;77.471617;13.;7;4.08;19.5;;;;;;;;3755916S;07728297E;;0;;;
HAR09;2018;12;6;3;18;0;-37.944950;77.397917;18.;8;4.08;19.5;;;;;;;;3756697S;07723875E;;0;;;
HAR09;2018;12;6;3;33;0;-37.985100;77.335017;0.5;6;4.08;20.5;;;;;;;;3759106S;07720101E;;0;;;
HAR09;2018;12;6;3;48;0;-37.996800;77.299083;24.;7;4.09;25;;;;;;;;3759808S;07717945E;;0;;;
HAR09;2018;12;6;4;3;0;-38.032900;77.210533;23.;7;4.1;22.5;;;;;;;;3801974S;07712632E;;0;;;
HAR09;2018;12;6;4;19;0;-38.071317;77.130417;17.;7;4.11;22;;;;;;;;3804279S;07707825E;;0;;;
HAR09;2018;12;6;4;34;0;-38.115450;77.068767;22.;9;4.11;20.5;;;;;;;;3806927S;07704126E;;0;;;
HAR09;2018;12;6;4;49;0;-38.161633;77.010433;22.;8;4.11;18.5;;;;;;;;3809698S;07700626E;;0;;;
HAR09;2018;12;6;5;4;0;-38.207133;76.954133;20.;8;4.12;19.5;;;;;;;;3812428S;07657248E;;0;;;
HAR09;2018;12;6;5;20;0;-38.229950;76.916417;19.;8;4.12;21.5;;;;;;;;3813797S;07654985E;;0;;;
HAR09;2018;12;6;5;35;0;-38.280517;76.886267;0.8;8;4.12;17.5;;;;;;;;3816831S;07653176E;;0;;;
HAR09;2018;12;6;5;50;0;-38.324450;76.882600;5.3;9;4.12;22;;;;;;;;3819467S;07652956E;;0;;;
HAR09;2018;12;6;6;6;0;-38.369283;76.881267;24.;22;4.12;24;;;;;;;;3822157S;07652876E;;0;;;
HAR09;2018;12;6;6;21;0;-38.438633;76.865250;18.;9;4.12;25.5;;;;;;;;3826318S;07651915E;;0;;;
HAR09;2018;12;6;6;36;0;-38.510517;76.844533;24.;8;4.13;24;;;;;;;;3830631S;07650672E;;0;;;
HAR09;2018;12;6;6;51;0;-38.600150;76.834017;24.;9;4.14;23.5;;;;;;;;3836009S;07650041E;;0;;;
HAR09;2018;12;6;7;7;0;-38.664983;76.837883;28.;8;4.14;24;;;;;;;;3839899S;07650273E;;0;;;
HAR09;2018;12;6;7;22;0;-38.740883;76.836600;26.;8;4.15;23.5;;;;;;;;3844453S;07650196E;;0;;;
HAR09;2018;12;6;7;37;0;-38.806817;76.844967;16.;12;4.15;23;;;;;;;;3848409S;07650698E;;0;;;
HAR09;2018;12;6;7;53;0;-38.843600;76.856150;30.;4;4.12;25;;;;;;;;3850616S;07651369E;;0;;;
HAR09;2018;12;6;8;8;0;-38.939533;76.896133;2.7;7;4.14;22;;;;;;;;3856372S;07653768E;;0;;;
HAR09;2018;12;6;8;23;0;-39.016650;76.927350;35.;9;4.15;22;;;;;;;;3900999S;07655641E;;0;;;
HAR09;2018;12;6;8;38;0;-39.098367;76.959917;13.;3;4.14;23.5;;;;;;;;3905902S;07657595E;;0;;;
HAR09;2018;12;6;8;54;0;-39.186367;77.012200;25.;5;4.14;23.5;;;;;;;;3911182S;07700732E;;0;;;
HAR09;2018;12;6;9;9;0;-39.266383;77.050517;20.;9;4.15;22;;;;;;;;3915983S;07703031E;;0;;;
HAR09;2018;12;6;9;25;0;-39.339117;77.098633;29.;5;4.12;24.5;;;;;;;;3920347S;07705918E;;0;;;
HAR09;2018;12;6;9;40;0;-39.405283;77.146200;0.5;9;4.13;20.5;;;;;;;;3924317S;07708772E;;0;;;
HAR09;2018;12;6;9;55;0;-39.477350;77.188383;23.;9;4.13;20.5;;;;;;;;3928641S;07711303E;;0;;;
HAR09;2018;12;6;10;10;0;-39.544150;77.220817;25.;8;4.14;19.5;;;;;;;;3932649S;07713249E;;0;;;
HAR09;2018;12;6;10;26;0;-39.610400;77.260233;24.;13;4.14;19.5;;;;;;;;3936624S;07715614E;;0;;;
HAR09;2018;12;6;10;41;0;-39.691650;77.299883;19.;10;4.14;19.5;;;;;;;;3941499S;07717993E;;0;;;
HAR09;2018;12;6;10;56;0;-39.771800;77.340533;32.;10;4.15;18.5;;;;;;;;3946308S;07720432E;;0;;;
HAR09;2018;12;6;11;11;0;-39.846983;77.368450;20.;13;4.15;18.5;;;;;;;;3950819S;07722107E;;0;;;
HAR09;2018;12;6;11;27;0;-39.933400;77.402633;26.;9;4.15;18.5;;;;;;;;3956004S;07724158E;;0;;;
HAR09;2018;12;6;11;42;0;-40.024050;77.440567;34.;10;4.15;17.5;;;;;;;;4001443S;07726434E;;0;;;
HAR09;2018;12;6;11;58;0;-40.125617;77.491300;36.;13;4.11;20.5;;;;;;;;4007537S;07729478E;;0;;;
HAR09;2018;12;6;12;13;0;-40.196500;77.535000;34.;9;4.12;18;;;;;;;;4011790S;07732100E;;0;;;
HAR09;2018;12;6;12;28;0;-40.286133;77.597883;39.;8;4.12;17;;;;;;;;4017168S;07735873E;;0;;;
HAR09;2018;12;6;12;43;0;-40.374183;77.653350;36.;9;4.13;16.5;;;;;;;;4022451S;07739201E;;0;;;
HAR09;2018;12;6;12;59;0;-40.451833;77.709717;30.;10;4.12;16;;;;;;;;4027110S;07742583E;;0;;;
HAR09;2018;12;6;13;14;0;-40.539533;77.763567;23.;9;4.13;15.5;;;;;;;;4032372S;07745814E;;0;;;
HAR09;2018;12;6;13;29;0;-40.600200;77.781967;0.4;8;4.12;14.5;;;;;;;;4036012S;07746918E;;0;;;
HAR09;2018;12;6;13;44;0;-40.622083;77.788367;4.9;9;4.12;14;;;;;;;;4037325S;07747302E;;0;;;
HAR09;2018;12;6;14;0;0;-40.675717;77.834117;28.;13;4.12;13;;;;;;;;4040543S;07750047E;;0;;;
HAR09;2018;12;6;14;15;0;-40.761517;77.886767;32.;15;4.12;13.5;;;;;;;;4045691S;07753206E;;0;;;
HAR09;2018;12;6;14;30;0;-40.786083;77.906217;2.6;15;4.12;13.5;;;;;;;;4047165S;07754373E;;0;;;
HAR09;2018;12;6;14;46;0;-40.786283;77.906983;1.2;32;4.12;13.5;;;;;;;;4047177S;07754419E;;0;;;
HAR09;2018;12;6;15;1;0;-40.786583;77.910383;0.6;13;4.12;14.5;;;;;;;;4047195S;07754623E;;0;;;
HAR09;2018;12;6;15;17;0;-40.786183;77.916167;0.1;7;4.12;13.5;;;;;;;;4047171S;07754970E;;0;;;
HAR09;2018;12;6;15;32;0;-40.785917;77.921767;0.6;6;4.12;13.5;;;;;;;;4047155S;07755306E;;0;;;
HAR09;2018;12;6;15;47;0;-40.785000;77.927767;1.9;6;4.12;13.5;;;;;;;;4047100S;07755666E;;0;;;
HAR09;2018;12;6;16;2;0;-40.783733;77.933833;2.0;6;4.12;13.5;;;;;;;;4047024S;07756030E;;0;;;
HAR09;2018;12;6;16;17;0;-40.782833;77.939567;1.4;5;4.12;13;;;;;;;;4046970S;07756374E;;0;;;
HAR09;2018;12;6;16;33;0;-40.781817;77.945017;1.5;5;4.12;14;;;;;;;;4046909S;07756701E;;0;;;
HAR09;2018;12;6;16;48;0;-40.781000;77.949983;0.7;6;4.12;14.5;;;;;;;;4046860S;07756999E;;0;;;
HAR09;2018;12;6;17;3;0;-40.779050;77.955600;0.5;5;4.12;14;;;;;;;;4046743S;07757336E;;0;;;
HAR09;2018;12;6;17;18;0;-40.777567;77.960633;1.2;10;4.12;13.5;;;;;;;;4046654S;07757638E;;0;;;
HAR09;2018;12;6;17;33;0;-40.776400;77.965550;0.9;9;4.11;13;;;;;;;;4046584S;07757933E;;0;;;
HAR09;2018;12;6;17;49;0;-40.774950;77.971150;1.4;11;4.11;13;;;;;;;;4046497S;07758269E;;0;;;
HAR09;2018;12;6;18;4;0;-40.774067;77.976217;0.3;19;4.11;14;;;;;;;;4046444S;07758573E;;0;;;
HAR09;2018;12;6;18;20;0;-40.773650;77.980950;0.6;19;4.11;15;;;;;;;;4046419S;07758857E;;0;;;
HAR09;2018;12;6;18;35;0;-40.773733;77.984650;38.;39;4.11;15.5;;;;;;;;4046424S;07759079E;;0;;;
HAR09;2018;12;6;18;51;0;-40.772933;77.990183;1.6;13;4.1;15;;;;;;;;4046376S;07759411E;;0;;;
HAR09;2018;12;6;19;6;0;-40.772933;77.994700;0.7;25;4.1;15.5;;;;;;;;4046376S;07759682E;;0;;;
HAR09;2018;12;6;19;22;0;-40.773333;77.999367;0.3;21;4.1;15;;;;;;;;4046400S;07759962E;;0;;;
HAR09;2018;12;6;19;37;0;-40.773567;78.004383;1.1;17;4.1;15;;;;;;;;4046414S;07800263E;;0;;;
HAR09;2018;12;6;19;52;0;-40.773100;78.010133;0.5;11;4.1;14.5;;;;;;;;4046386S;07800608E;;0;;;
HAR09;2018;12;6;20;8;0;-40.772950;78.016450;1.0;15;4.09;15.5;;;;;;;;4046377S;07800987E;;0;;;
HAR09;2018;12;6;20;23;0;-40.771917;78.022600;0.5;7;4.09;16;;;;;;;;4046315S;07801356E;;0;;;
HAR09;2018;12;6;20;38;0;-40.771567;78.028283;1.9;7;4.09;14.5;;;;;;;;4046294S;07801697E;;0;;;
HAR09;2018;12;6;20;53;0;-40.771067;78.033950;1.0;17;4.09;14.5;;;;;;;;4046264S;07802037E;;0;;;
HAR09;2018;12;6;21;9;0;-40.770817;78.039583;0.6;17;4.09;15;;;;;;;;4046249S;07802375E;;0;;;
HAR09;2018;12;6;21;24;0;-40.770250;78.045283;2.2;14;4.09;15;;;;;;;;4046215S;07802717E;;0;;;
HAR09;2018;12;6;21;40;0;-40.770883;78.050433;0.2;29;4.09;13;;;;;;;;4046253S;07803026E;;0;;;
HAR09;2018;12;6;21;55;0;-40.791033;78.073900;36.;13;4.08;13;;;;;;;;4047462S;07804434E;;0;;;
HAR09;2018;12;6;22;10;0;-40.898817;78.137633;27.;24;4.08;13.5;;;;;;;;4053929S;07808258E;;0;;;
HAR09;2018;12;6;22;26;0;-41.015967;78.207017;28.;19;4.08;13.5;;;;;;;;4100958S;07812421E;;0;;;
HAR09;2018;12;6;22;41;0;-41.139617;78.260867;27.;15;4.08;13;;;;;;;;4108377S;07815652E;;0;;;
HAR09;2018;12;6;22;57;0;-41.257667;78.326650;34.;13;4.08;13;;;;;;;;4115460S;07819599E;;0;;;
HAR09;2018;12;6;23;12;0;-41.360200;78.415617;23.;35;4.08;13;;;;;;;;4121612S;07824937E;;0;;;
HAR09;2018;12;6;23;28;0;-41.481200;78.511183;34.;26;4.08;12.5;;;;;;;;4128872S;07830671E;;0;;;
HAR09;2018;12;6;23;43;0;-41.566550;78.574567;36.;28;4.08;12.5;;;;;;;;4133993S;07834474E;;0;;;
HAR09;2018;12;6;23;59;0;-41.667583;78.642200;30.;35;4.08;12.5;;;;;;;;4140055S;07838532E;;0;;;
HAR09;2018;12;7;0;14;0;-41.759583;78.711633;18.;13;4.08;12.5;;;;;;;;4145575S;07842698E;;0;;;
HAR09;2018;12;7;0;30;0;-41.816617;78.751850;1.9;9;4.08;13;;;;;;;;4148997S;07845111E;;0;;;
HAR09;2018;12;7;0;45;0;-41.902967;78.822067;13.;10;4.08;13;;;;;;;;4154178S;07849324E;;0;;;
HAR09;2018;12;7;1;0;0;-41.969917;78.889117;1.2;7;4.08;13.5;;;;;;;;4158195S;07853347E;;0;;;
HAR09;2018;12;7;1;15;0;-42.012650;78.933017;22.;8;4.08;13.5;;;;;;;;4200759S;07855981E;;0;;;
HAR09;2018;12;7;1;30;0;-42.061633;78.990433;37.;8;4.09;13.5;;;;;;;;4203698S;07859426E;;0;;;
HAR09;2018;12;7;1;46;0;-42.099467;79.034617;0.8;8;4.09;14.5;;;;;;;;4205968S;07902077E;;0;;;
HAR09;2018;12;7;2;1;0;-42.126000;79.060367;13.;8;4.1;14;;;;;;;;4207560S;07903622E;;0;;;
HAR09;2018;12;7;2;16;0;-42.140717;79.076600;19.;9;4.09;14.5;;;;;;;;4208443S;07904596E;;0;;;
HAR09;2018;12;7;2;31;0;-42.221517;79.143333;26.;8;4.1;14;;;;;;;;4213291S;07908600E;;0;;;
HAR09;2018;12;7;2;47;0;-42.256467;79.167683;0.9;10;4.1;15;;;;;;;;4215388S;07910061E;;0;;;
HAR09;2018;12;7;3;2;0;-42.256733;79.165817;1.1;8;4.1;19.5;;;;;;;;4215404S;07909949E;;0;;;
HAR09;2018;12;7;3;17;0;-42.265517;79.174650;22.;7;4.11;15;;;;;;;;4215931S;07910479E;;0;;;
HAR09;2018;12;7;3;32;0;-42.339317;79.233700;22.;8;4.12;15.5;;;;;;;;4220359S;07914022E;;0;;;
HAR09;2018;12;7;3;47;0;-42.349050;79.221033;1.2;10;4.12;15;;;;;;;;4220943S;07913262E;;0;;;
HAR09;2018;12;7;4;3;0;-42.314367;79.246150;22.;10;4.12;15.5;;;;;;;;4218862S;07914769E;;0;;;
HAR09;2018;12;7;4;18;0;-42.309300;79.249250;1.8;8;4.12;18;;;;;;;;4218558S;07914955E;;0;;;
HAR09;2018;12;7;4;33;0;-42.281233;79.268333;0.8;8;4.12;18;;;;;;;;4216874S;07916100E;;0;;;
HAR09;2018;12;7;4;48;0;-42.280667;79.267450;26.;8;4.13;18;;;;;;;;4216840S;07916047E;;0;;;
HAR09;2018;12;7;5;4;0;-42.325933;79.284400;10.;7;4.14;17;;;;;;;;4219556S;07917064E;;0;;;
HAR09;2018;12;7;5;19;0;-42.404750;79.335267;28.;9;4.15;15;;;;;;;;4224285S;07920116E;;0;;;
HAR09;2018;12;7;5;35;0;-42.470117;79.378167;29.;13;4.12;21;;;;;;;;4228207S;07922690E;;0;;;
HAR09;2018;12;7;5;50;0;-42.541833;79.421317;20.;9;4.14;16;;;;;;;;4232510S;07925279E;;0;;;
HAR09;2018;12;7;6;5;0;-42.618383;79.470133;19.;7;4.15;16;;;;;;;;4237103S;07928208E;;0;;;
HAR09;2018;12;7;6;21;0;-42.676183;79.541333;31.;17;4.12;17.5;;;;;;;;4240571S;07932480E;;0;;;
HAR09;2018;12;7;6;36;0;-42.751233;79.629467;17.;8;4.13;16.5;;;;;;;;4245074S;07937768E;;0;;;
HAR09;2018;12;7;6;52;0;-42.812833;79.708133;17.;7;4.13;16;;;;;;;;4248770S;07942488E;;0;;;
HAR09;2018;12;7;7;7;0;-42.873783;79.779233;31.;10;4.14;15.5;;;;;;;;4252427S;07946754E;;0;;;
HAR09;2018;12;7;7;22;0;-42.940383;79.839567;22.;8;4.15;15.5;;;;;;;;4256423S;07950374E;;0;;;
HAR09;2018;12;7;7;38;0;-42.994167;79.885200;20.;2;4.12;16.5;;;;;;;;4259650S;07953112E;;0;;;
HAR09;2018;12;7;7;53;0;-43.029333;79.912700;22.;5;4.14;17;;;;;;;;4301760S;07954762E;;0;;;
HAR09;2018;12;7;8;9;0;-43.092600;79.958133;21.;3;4.13;19;;;;;;;;4305556S;07957488E;;0;;;
HAR09;2018;12;7;8;24;0;-43.158533;80.020100;29.;3;4.13;18;;;;;;;;4309512S;08001206E;;0;;;
HAR09;2018;12;7;8;40;0;-43.232283;80.090400;17.;6;4.12;16.5;;;;;;;;4313937S;08005424E;;0;;;
HAR09;2018;12;7;8;55;0;-43.274717;80.134133;22.;7;4.13;15.5;;;;;;;;4316483S;08008048E;;0;;;
HAR09;2018;12;7;9;11;0;-43.339517;80.204483;22.;10;4.12;16.5;;;;;;;;4320371S;08012269E;;0;;;
HAR09;2018;12;7;9;26;0;-43.389767;80.273850;14.;14;4.15;14;;;;;;;;4323386S;08016431E;;0;;;
HAR09;2018;12;7;9;42;0;-43.392300;80.267683;18.;2;4.12;16;;;;;;;;4323538S;08016061E;;0;;;
HAR09;2018;12;7;9;57;0;-43.384333;80.258167;33.;14;4.15;13;;;;;;;;4323060S;08015490E;;0;;;
HAR09;2018;12;7;10;13;0;-43.395567;80.321833;20.;13;4.12;16;;;;;;;;4323734S;08019310E;;0;;;
HAR09;2018;12;7;10;28;0;-43.384800;80.357800;13.;12;4.15;12.5;;;;;;;;4323088S;08021468E;;0;;;
HAR09;2018;12;7;10;44;0;-43.413517;80.399517;2.8;12;4.15;12.5;;;;;;;;4324811S;08023971E;;0;;;
HAR09;2018;12;7;10;59;0;-43.421717;80.415300;0.4;8;4.15;12;;;;;;;;4325303S;08024918E;;0;;;
HAR09;2018;12;7;11;14;0;-43.441283;80.435017;15.;10;4.15;11.5;;;;;;;;4326477S;08026101E;;0;;;
HAR09;2018;12;7;11;29;0;-43.432533;80.445800;27.;14;4.15;11.5;;;;;;;;4325952S;08026748E;;0;;;
HAR09;2018;12;7;11;45;0;-43.435717;80.473850;0.8;3;4.12;14;;;;;;;;4326143S;08028431E;;0;;;
HAR09;2018;12;7;12;0;0;-43.430250;80.450433;2.3;12;4.14;12;;;;;;;;4325815S;08027026E;;0;;;
HAR09;2018;12;7;12;15;0;-43.423000;80.443700;8.9;10;4.14;11.5;;;;;;;;4325380S;08026622E;;0;;;
HAR09;2018;12;7;12;31;0;-43.417500;80.434367;1.9;9;4.14;12;;;;;;;;4325050S;08026062E;;0;;;
HAR09;2018;12;7;12;46;0;-43.391150;80.431617;14.;9;4.14;11.5;;;;;;;;4323469S;08025897E;;0;;;
HAR09;2018;12;7;13;1;0;-43.345067;80.494117;25.;8;4.14;10.5;;;;;;;;4320704S;08029647E;;0;;;
HAR09;2018;12;7;13;16;0;-43.336867;80.535450;17.;8;4.14;11;;;;;;;;4320212S;08032127E;;0;;;
HAR09;2018;12;7;13;32;0;-43.326083;80.558800;5.6;8;4.14;11;;;;;;;;4319565S;08033528E;;0;;;
HAR09;2018;12;7;13;47;0;-43.333183;80.580500;17.;8;4.14;11;;;;;;;;4319991S;08034830E;;0;;;
HAR09;2018;12;7;14;2;0;-43.356383;80.603750;14.;13;4.13;10;;;;;;;;4321383S;08036225E;;0;;;
HAR09;2018;12;7;14;17;0;-43.337483;80.643733;25.;7;4.13;10;;;;;;;;4320249S;08038624E;;0;;;
HAR09;2018;12;7;14;33;0;-43.311867;80.648667;15.;8;4.13;10;;;;;;;;4318712S;08038920E;;0;;;
HAR09;2018;12;7;14;48;0;-43.278833;80.678933;2.4;6;4.13;10.5;;;;;;;;4316730S;08040736E;;0;;;
HAR09;2018;12;7;15;3;0;-43.278967;80.687350;2.1;6;4.13;12;;;;;;;;4316738S;08041241E;;0;;;
HAR09;2018;12;7;15;18;0;-43.278867;80.696000;3.1;6;4.13;13;;;;;;;;4316732S;08041760E;;0;;;
HAR09;2018;12;7;15;33;0;-43.278417;80.704867;1.8;6;4.13;14;;;;;;;;4316705S;08042292E;;0;;;
HAR09;2018;12;7;15;49;0;-43.277533;80.713567;2.3;13;4.12;16;;;;;;;;4316652S;08042814E;;0;;;
HAR09;2018;12;7;16;4;0;-43.276717;80.722200;2.7;14;4.12;16.5;;;;;;;;4316603S;08043332E;;0;;;
HAR09;2018;12;7;16;20;0;-43.275917;80.731067;1.3;29;4.12;16.5;;;;;;;;4316555S;08043864E;;0;;;
HAR09;2018;12;7;16;35;0;-43.274950;80.739867;3.7;6;4.12;16.5;;;;;;;;4316497S;08044392E;;0;;;
HAR09;2018;12;7;16;50;0;-43.273717;80.748567;1.6;6;4.12;16.5;;;;;;;;4316423S;08044914E;;0;;;
HAR09;2018;12;7;17;5;0;-43.272000;80.757533;1.0;6;4.12;16.5;;;;;;;;4316320S;08045452E;;0;;;
HAR09;2018;12;7;17;20;0;-43.270067;80.766567;2.2;5;4.12;16.5;;;;;;;;4316204S;08045994E;;0;;;
HAR09;2018;12;7;17;36;0;-43.268150;80.775300;0.7;6;4.12;16.5;;;;;;;;4316089S;08046518E;;0;;;
HAR09;2018;12;7;17;51;0;-43.266050;80.783833;1.3;4;4.12;16.5;;;;;;;;4315963S;08047030E;;0;;;
HAR09;2018;12;7;18;6;0;-43.264617;80.791400;1.2;7;4.12;16.5;;;;;;;;4315877S;08047484E;;0;;;
HAR09;2018;12;7;18;21;0;-43.263267;80.798417;2.6;7;4.12;16;;;;;;;;4315796S;08047905E;;0;;;
HAR09;2018;12;7;18;36;0;-43.261817;80.805183;1.2;7;4.12;16;;;;;;;;4315709S;08048311E;;0;;;
HAR09;2018;12;7;18;52;0;-43.260100;80.811767;1.2;12;4.12;16;;;;;;;;4315606S;08048706E;;0;;;
HAR09;2018;12;7;19;7;0;-43.258400;80.818217;1.2;35;4.11;16.5;;;;;;;;4315504S;08049093E;;0;;;
HAR09;2018;12;7;19;23;0;-43.256333;80.824517;1.2;38;4.11;16.5;;;;;;;;4315380S;08049471E;;0;;;
HAR09;2018;12;7;19;38;0;-43.254483;80.830167;1.7;8;4.11;16;;;;;;;;4315269S;08049810E;;0;;;
HAR09;2018;12;7;19;53;0;-43.252800;80.835350;2.3;4;4.11;16;;;;;;;;4315168S;08050121E;;0;;;
HAR09;2018;12;7;20;9;0;-43.250750;80.840517;0.9;4;4.1;14.5;;;;;;;;4315045S;08050431E;;0;;;
HAR09;2018;12;7;20;24;0;-43.248600;80.845850;1.3;8;4.1;13;;;;;;;;4314916S;08050751E;;0;;;
HAR09;2018;12;7;20;39;0;-43.246767;80.850667;2.4;11;4.1;13;;;;;;;;4314806S;08051040E;;0;;;
HAR09;2018;12;7;20;54;0;-43.244850;80.854933;0.7;9;4.1;13;;;;;;;;4314691S;08051296E;;0;;;
HAR09;2018;12;7;21;10;0;-43.243200;80.859467;1.5;6;4.1;14;;;;;;;;4314592S;08051568E;;0;;;
HAR09;2018;12;7;21;25;0;-43.241217;80.863183;0.6;13;4.1;14;;;;;;;;4314473S;08051791E;;0;;;
HAR09;2018;12;7;21;40;0;-43.239517;80.866767;0.5;12;4.1;15.5;;;;;;;;4314371S;08052006E;;0;;;
HAR09;2018;12;7;21;55;0;-43.238867;80.868317;0.8;10;4.1;15.5;;;;;;;;4314332S;08052099E;;0;;;
HAR09;2018;12;7;22;11;0;-43.236500;80.873033;1.7;31;4.09;14;;;;;;;;4314190S;08052382E;;0;;;
HAR09;2018;12;7;22;26;0;-43.234833;80.876350;3.1;6;4.09;12.5;;;;;;;;4314090S;08052581E;;0;;;
HAR09;2018;12;7;22;42;0;-43.265200;80.866900;16.;22;4.09;12.5;;;;;;;;4315912S;08052014E;;0;;;
HAR09;2018;12;7;22;57;0;-43.260483;80.876600;32.;12;4.09;12.5;;;;;;;;4315629S;08052596E;;0;;;
HAR09;2018;12;7;23;13;0;-43.254267;80.893283;19.;27;4.09;12;;;;;;;;4315256S;08053597E;;0;;;
HAR09;2018;12;7;23;28;0;-43.263617;80.912833;19.;26;4.08;12;;;;;;;;4315817S;08054770E;;0;;;
HAR09;2018;12;7;23;43;0;-43.229117;80.940033;10.;7;4.08;12.5;;;;;;;;4313747S;08056402E;;0;;;
HAR09;2018;12;8;0;0;0;-43.210767;81.016933;25.;100;4.08;13;;;;;;;;4312646S;08101016E;;0;;;
HAR09;2018;12;8;0;16;0;-43.194300;81.068083;8.7;42;4.08;13;;;;;;;;4311658S;08104085E;;0;;;
HAR09;2018;12;8;0;32;0;-43.207117;81.067867;1.1;36;4.08;14;;;;;;;;4312427S;08104072E;;0;;;
HAR09;2018;12;8;0;47;0;-43.207717;81.071983;1.9;7;4.08;13;;;;;;;;4312463S;08104319E;;0;;;
HAR09;2018;12;8;1;2;0;-43.208600;81.076617;0.7;6;4.08;14;;;;;;;;4312516S;08104597E;;0;;;
HAR09;2018;12;8;1;17;0;-43.253833;81.087000;36.;7;4.08;14;;;;;;;;4315230S;08105220E;;0;;;
HAR09;2018;12;8;1;32;0;-43.258967;81.094833;0.6;12;4.08;14.5;;;;;;;;4315538S;08105690E;;0;;;
HAR09;2018;12;8;1;48;0;-43.324067;81.136567;16.;12;4.09;13.5;;;;;;;;4319444S;08108194E;;0;;;
HAR09;2018;12;8;2;3;0;-43.400983;81.160933;17.;18;4.1;13.5;;;;;;;;4324059S;08109656E;;0;;;
HAR09;2018;12;8;2;18;0;-43.405817;81.165083;1.0;14;4.1;14;;;;;;;;4324349S;08109905E;;0;;;
HAR09;2018;12;8;2;34;0;-43.416967;81.176283;11.;12;4.11;13.5;;;;;;;;4325018S;08110577E;;0;;;
HAR09;2018;12;8;2;49;0;-43.418650;81.225533;23.;26;4.12;13.5;;;;;;;;4325119S;08113532E;;0;;;
HAR09;2018;12;8;3;6;0;-43.416000;81.275517;33.;70;4.12;13.5;;;;;;;;4324960S;08116531E;;0;;;
HAR09;2018;12;8;3;22;0;-43.413467;81.324783;10.;84;4.13;14;;;;;;;;4324808S;08119487E;;0;;;
HAR09;2018;12;8;3;37;0;-43.416167;81.369133;28.;13;4.13;13;;;;;;;;4324970S;08122148E;;0;;;
HAR09;2018;12;8;3;53;0;-43.418000;81.414733;15.;19;4.13;13.5;;;;;;;;4325080S;08124884E;;0;;;
HAR09;2018;12;8;4;9;0;-43.459233;81.448450;1.9;40;4.13;15.5;;;;;;;;4327554S;08126907E;;0;;;
HAR09;2018;12;8;4;24;0;-43.473867;81.458450;10.;11;4.14;19;;;;;;;;4328432S;08127507E;;0;;;
HAR09;2018;12;8;4;40;0;-43.412300;81.433283;34.;1;4.13;18.5;;;;;;;;4324738S;08125997E;;0;;;
HAR09;2018;12;8;4;55;0;-43.333300;81.452267;18.;2;4.14;18.5;;;;;;;;4319998S;08127136E;;0;;;
HAR09;2018;12;8;5;11;0;-43.317600;81.465917;10.;10;4.12;19.5;;;;;;;;4319056S;08127955E;;0;;;
HAR09;2018;12;8;5;26;0;-43.228000;81.493983;2.5;17;4.15;18;;;;;;;;4313680S;08129639E;;0;;;
HAR09;2018;12;8;5;42;0;-43.179233;81.505017;25.;2;4.13;20.5;;;;;;;;4310754S;08130301E;;0;;;
HAR09;2018;12;8;5;58;0;-43.125383;81.480333;25.;2;4.13;20.5;;;;;;;;4307523S;08128820E;;0;;;
HAR09;2018;12;8;6;13;0;-43.124167;81.506933;5.3;1;4.13;19.5;;;;;;;;4307450S;08130416E;;0;;;
HAR09;2018;12;8;6;29;0;-43.116900;81.548833;13.;28;4.14;19.5;;;;;;;;4307014S;08132930E;;0;;;
HAR09;2018;12;8;6;45;0;-43.050983;81.547233;0.8;13;4.14;21;;;;;;;;4303059S;08132834E;;0;;;
HAR09;2018;12;8;7;2;0;-43.010533;81.541800;29.;72;4.14;20;;;;;;;;4300632S;08132508E;;0;;;
HAR09;2018;12;8;7;18;0;-42.916967;81.519833;29.;34;4.13;20.5;;;;;;;;4255018S;08131190E;;0;;;
HAR09;2018;12;8;7;34;0;-42.877433;81.518883;0.1;23;4.13;21.5;;;;;;;;4252646S;08131133E;;0;;;
HAR09;2018;12;8;7;50;0;-42.874033;81.524983;1.5;35;4.13;20.5;;;;;;;;4252442S;08131499E;;0;;;
HAR09;2018;12;8;8;6;0;-42.870183;81.531433;0.3;6;4.13;21.5;;;;;;;;4252211S;08131886E;;0;;;
HAR09;2018;12;8;8;21;0;-42.866850;81.537450;0.7;2;4.12;21.5;;;;;;;;4252011S;08132247E;;0;;;
HAR09;2018;12;8;8;36;0;-42.862967;81.543217;1.9;2;4.14;19.5;;;;;;;;4251778S;08132593E;;0;;;
HAR09;2018;12;8;8;52;0;-42.858833;81.548667;1.5;2;4.12;20.5;;;;;;;;4251530S;08132920E;;0;;;
HAR09;2018;12;8;9;7;0;-42.854917;81.553567;4.3;4;4.15;18;;;;;;;;4251295S;08133214E;;0;;;
HAR09;2018;12;8;9;23;0;-42.852967;81.558733;17.;2;4.12;19.5;;;;;;;;4251178S;08133524E;;0;;;
HAR09;2018;12;8;9;38;0;-42.850233;81.562783;1.6;5;4.14;17;;;;;;;;4251014S;08133767E;;0;;;
HAR09;2018;12;8;9;53;0;-42.846150;81.566700;1.3;8;4.15;16;;;;;;;;4250769S;08134002E;;0;;;
HAR09;2018;12;8;10;9;0;-42.841850;81.570533;1.2;4;4.12;18.5;;;;;;;;4250511S;08134232E;;0;;;
HAR09;2018;12;8;10;24;0;-42.837000;81.574400;1.0;12;4.14;15.5;;;;;;;;4250220S;08134464E;;0;;;
HAR09;2018;12;8;10;40;0;-42.832850;81.576800;0.6;16;4.14;14.5;;;;;;;;4249971S;08134608E;;0;;;
HAR09;2018;12;8;10;55;0;-42.828750;81.580350;1.8;22;4.14;15;;;;;;;;4249725S;08134821E;;0;;;
HAR09;2018;12;8;11;10;0;-42.825183;81.582750;1.6;4;4.15;13.5;;;;;;;;4249511S;08134965E;;0;;;
HAR09;2018;12;8;11;25;0;-42.821383;81.585133;0.8;8;4.15;14;;;;;;;;4249283S;08135108E;;0;;;
HAR09;2018;12;8;11;41;0;-42.817917;81.587633;0.8;7;4.15;13;;;;;;;;4249075S;08135258E;;0;;;
HAR09;2018;12;8;11;56;0;-42.777033;81.582683;14.;6;4.12;15.5;;;;;;;;4246622S;08134961E;;0;;;
HAR09;2018;12;8;12;12;0;-42.740417;81.573900;20.;5;4.14;13;;;;;;;;4244425S;08134434E;;0;;;
HAR09;2018;12;8;12;27;0;-42.766633;81.576350;0.8;7;4.14;13.5;;;;;;;;4245998S;08134581E;;0;;;
HAR09;2018;12;8;12;42;0;-42.764050;81.579117;1.0;7;4.14;12.5;;;;;;;;4245843S;08134747E;;0;;;
HAR09;2018;12;8;12;57;0;-42.761383;81.581483;1.2;9;4.14;13;;;;;;;;4245683S;08134889E;;0;;;
HAR09;2018;12;8;13;12;0;-42.758533;81.584367;3.5;9;4.14;13;;;;;;;;4245512S;08135062E;;0;;;
HAR09;2018;12;8;13;28;0;-42.755917;81.586600;2.6;27;4.13;13;;;;;;;;4245355S;08135196E;;0;;;
HAR09;2018;12;8;13;43;0;-42.752733;81.588600;0.1;4;4.13;12.5;;;;;;;;4245164S;08135316E;;0;;;
HAR09;2018;12;8;13;58;0;-42.749733;81.590050;2.6;4;4.13;12;;;;;;;;4244984S;08135403E;;0;;;
HAR09;2018;12;8;14;14;0;-42.747067;81.591550;0.5;5;4.13;12;;;;;;;;4244824S;08135493E;;0;;;
HAR09;2018;12;8;14;29;0;-42.744483;81.593050;0.7;5;4.13;12;;;;;;;;4244669S;08135583E;;0;;;
HAR09;2018;12;8;14;44;0;-42.742250;81.594200;0.6;5;4.13;12;;;;;;;;4244535S;08135652E;;0;;;
HAR09;2018;12;8;14;59;0;-42.740200;81.595417;1.3;5;4.12;12.5;;;;;;;;4244412S;08135725E;;0;;;
HAR09;2018;12;8;15;14;0;-42.738350;81.596433;0.4;5;4.12;13.5;;;;;;;;4244301S;08135786E;;0;;;
HAR09;2018;12;8;15;29;0;-42.736850;81.597333;0.8;6;4.12;13;;;;;;;;4244211S;08135840E;;0;;;
HAR09;2018;12;8;15;45;0;-42.735333;81.598133;0.6;6;4.12;13;;;;;;;;4244120S;08135888E;;0;;;
HAR09;2018;12;8;16;0;0;-42.733100;81.598983;1.6;7;4.12;14;;;;;;;;4243986S;08135939E;;0;;;
HAR09;2018;12;8;16;15;0;-42.730450;81.600250;1.0;10;4.12;13;;;;;;;;4243827S;08136015E;;0;;;
HAR09;2018;12;8;16;30;0;-42.727550;81.601817;1.7;9;4.12;13;;;;;;;;4243653S;08136109E;;0;;;
HAR09;2018;12;8;16;46;0;-42.724617;81.603150;1.2;14;4.12;13;;;;;;;;4243477S;08136189E;;0;;;
HAR09;2018;12;8;17;1;0;-42.721400;81.604300;1.7;12;4.12;13;;;;;;;;4243284S;08136258E;;0;;;
HAR09;2018;12;8;17;16;0;-42.718583;81.605433;1.0;16;4.12;13;;;;;;;;4243115S;08136326E;;0;;;
HAR09;2018;12;8;17;32;0;-42.716550;81.606017;2.1;14;4.12;13;;;;;;;;4242993S;08136361E;;0;;;
HAR09;2018;12;8;17;47;0;-42.714250;81.607033;2.3;8;4.12;12.5;;;;;;;;4242855S;08136422E;;0;;;
HAR09;2018;12;8;18;3;0;-42.711817;81.608067;0.2;27;4.12;12.5;;;;;;;;4242709S;08136484E;;0;;;
HAR09;2018;12;8;18;18;0;-42.709533;81.609150;0.8;4;4.11;12.5;;;;;;;;4242572S;08136549E;;0;;;
HAR09;2018;12;8;18;33;0;-42.707333;81.610100;1.4;4;4.11;13;;;;;;;;4242440S;08136606E;;0;;;
HAR09;2018;12;8;18;48;0;-42.705017;81.611500;0.8;4;4.11;13.5;;;;;;;;4242301S;08136690E;;0;;;
HAR09;2018;12;8;19;3;0;-42.703450;81.612617;2.3;4;4.11;13;;;;;;;;4242207S;08136757E;;0;;;
HAR09;2018;12;8;19;18;0;-42.702550;81.613317;1.8;6;4.11;12.5;;;;;;;;4242153S;08136799E;;0;;;
HAR09;2018;12;8;19;34;0;-42.701617;81.613783;1.5;6;4.11;13;;;;;;;;4242097S;08136827E;;0;;;
HAR09;2018;12;8;19;49;0;-42.701083;81.614283;1.0;9;4.11;14.5;;;;;;;;4242065S;08136857E;;0;;;
HAR09;2018;12;8;20;4;0;-42.700133;81.614867;0.7;7;4.11;14.5;;;;;;;;4242008S;08136892E;;0;;;
HAR09;2018;12;8;20;19;0;-42.698750;81.616850;0.6;7;4.11;13;;;;;;;;4241925S;08137011E;;0;;;
HAR09;2018;12;8;20;34;0;-42.696533;81.618067;1.1;6;4.1;15;;;;;;;;4241792S;08137084E;;0;;;
HAR09;2018;12;8;20;50;0;-42.694750;81.619250;0.4;7;4.1;15.5;;;;;;;;4241685S;08137155E;;0;;;
HAR09;2018;12;8;21;5;0;-42.693100;81.621033;1.3;6;4.1;15.5;;;;;;;;4241586S;08137262E;;0;;;
HAR09;2018;12;8;21;20;0;-42.691583;81.622767;1.3;7;4.1;13.5;;;;;;;;4241495S;08137366E;;0;;;
HAR09;2018;12;8;21;35;0;-42.691483;81.624017;2.2;6;4.1;12.5;;;;;;;;4241489S;08137441E;;0;;;
HAR09;2018;12;8;21;50;0;-42.688667;81.627617;27.;6;4.1;12;;;;;;;;4241320S;08137657E;;0;;;
HAR09;2018;12;8;22;6;0;-42.703133;81.627533;25.;13;4.1;12;;;;;;;;4242188S;08137652E;;0;;;
HAR09;2018;12;8;22;21;0;-42.689583;81.616383;1.2;14;4.1;12;;;;;;;;4241375S;08136983E;;0;;;
HAR09;2018;12;8;22;36;0;-42.688550;81.615450;1.3;8;4.09;12;;;;;;;;4241313S;08136927E;;0;;;
HAR09;2018;12;8;22;52;0;-42.655133;81.604450;14.;9;4.09;12;;;;;;;;4239308S;08136267E;;0;;;
HAR09;2018;12;8;23;7;0;-42.666367;81.592717;18.;12;4.09;12.5;;;;;;;;4239982S;08135563E;;0;;;
HAR09;2018;12;8;23;22;0;-42.614500;81.580417;1.2;7;4.09;12.5;;;;;;;;4236870S;08134825E;;0;;;
HAR09;2018;12;8;23;37;0;-42.613283;81.578567;2.7;9;4.09;13;;;;;;;;4236797S;08134714E;;0;;;
HAR09;2018;12;8;23;53;0;-42.564667;81.572283;20.;10;4.09;12;;;;;;;;4233880S;08134337E;;0;;;
HAR09;2018;12;9;0;8;0;-42.551483;81.540200;19.;14;4.09;12.5;;;;;;;;4233089S;08132412E;;0;;;
HAR09;2018;12;9;0;23;0;-42.547850;81.539233;22.;9;4.09;12.5;;;;;;;;4232871S;08132354E;;0;;;
HAR09;2018;12;9;0;38;0;-42.552283;81.535200;31.;12;4.09;13;;;;;;;;4233137S;08132112E;;0;;;
HAR09;2018;12;9;0;54;0;-42.599733;81.518383;1.5;11;4.09;13;;;;;;;;4235984S;08131103E;;0;;;
HAR09;2018;12;9;1;9;0;-42.619583;81.502383;19.;19;4.09;13;;;;;;;;4237175S;08130143E;;0;;;
HAR09;2018;12;9;1;24;0;-42.586667;81.464450;27.;11;4.09;13.5;;;;;;;;4235200S;08127867E;;0;;;
HAR09;2018;12;9;1;40;0;-42.573250;81.430133;12.;10;4.1;13;;;;;;;;4234395S;08125808E;;0;;;
HAR09;2018;12;9;1;55;0;-42.619783;81.473017;1.3;11;4.1;13.5;;;;;;;;4237187S;08128381E;;0;;;
HAR09;2018;12;9;2;10;0;-42.563733;81.523367;34.;7;4.11;13.5;;;;;;;;4233824S;08131402E;;0;;;
HAR09;2018;12;9;2;25;0;-42.551017;81.545867;2.4;7;4.11;13.5;;;;;;;;4233061S;08132752E;;0;;;
HAR09;2018;12;9;2;41;0;-42.551183;81.547083;0.7;8;4.11;14;;;;;;;;4233071S;08132825E;;0;;;
HAR09;2018;12;9;2;56;0;-42.621183;81.494733;32.;12;4.11;13.5;;;;;;;;4237271S;08129684E;;0;;;
HAR09;2018;12;9;3;11;0;-42.709850;81.450200;20.;9;4.11;14;;;;;;;;4242591S;08127012E;;0;;;
HAR09;2018;12;9;3;26;0;-42.764967;81.429550;0.7;8;4.11;13.5;;;;;;;;4245898S;08125773E;;0;;;
HAR09;2018;12;9;3;42;0;-42.809967;81.413817;46.;10;4.11;14;;;;;;;;4248598S;08124829E;;0;;;
HAR09;2018;12;9;3;57;0;-42.791917;81.445500;1.6;9;4.11;14;;;;;;;;4247515S;08126730E;;0;;;
HAR09;2018;12;9;4;12;0;-42.765333;81.465150;34.;8;4.12;14.5;;;;;;;;4245920S;08127909E;;0;;;
HAR09;2018;12;9;4;27;0;-42.699933;81.481750;26.;10;4.12;15;;;;;;;;4241996S;08128905E;;0;;;
HAR09;2018;12;9;4;42;0;-42.641450;81.493483;19.;8;4.12;14.5;;;;;;;;4238487S;08129609E;;0;;;
HAR09;2018;12;9;4;58;0;-42.573333;81.513800;34.;9;4.12;14.5;;;;;;;;4234400S;08130828E;;0;;;
HAR09;2018;12;9;5;13;0;-42.526050;81.522467;31.;9;4.13;14.5;;;;;;;;4231563S;08131348E;;0;;;
HAR09;2018;12;9;5;28;0;-42.515067;81.531517;43.;10;4.13;14.5;;;;;;;;4230904S;08131891E;;0;;;
HAR09;2018;12;9;5;43;0;-42.450833;81.545967;14.;7;4.13;14.5;;;;;;;;4227050S;08132758E;;0;;;
HAR09;2018;12;9;5;59;0;-42.502067;81.508933;22.;8;4.14;15.5;;;;;;;;4230124S;08130536E;;0;;;
HAR09;2018;12;9;6;14;0;-42.589950;81.496267;18.;11;4.14;14.5;;;;;;;;4235397S;08129776E;;0;;;
HAR09;2018;12;9;6;29;0;-42.709133;81.491533;20.;13;4.14;14.5;;;;;;;;4242548S;08129492E;;0;;;
HAR09;2018;12;9;6;44;0;-42.749867;81.496767;3.1;8;4.14;14;;;;;;;;4244992S;08129806E;;0;;;
HAR09;2018;12;9;7;0;0;-42.753983;81.501933;1.5;10;4.14;14.5;;;;;;;;4245239S;08130116E;;0;;;
HAR09;2018;12;9;7;15;0;-42.785350;81.504683;15.;10;4.14;14;;;;;;;;4247121S;08130281E;;0;;;
HAR09;2018;12;9;7;30;0;-42.881683;81.513183;23.;10;4.14;13.5;;;;;;;;4252901S;08130791E;;0;;;
HAR09;2018;12;9;7;45;0;-42.965983;81.506617;19.;10;4.14;14;;;;;;;;4257959S;08130397E;;0;;;
HAR09;2018;12;9;8;1;0;-43.006133;81.503500;43.;14;4.14;14;;;;;;;;4300368S;08130210E;;0;;;
HAR09;2018;12;9;8;16;0;-42.940467;81.528717;20.;12;4.14;14;;;;;;;;4256428S;08131723E;;0;;;
HAR09;2018;12;9;8;31;0;-42.894267;81.545983;16.;9;4.14;14;;;;;;;;4253656S;08132759E;;0;;;
HAR09;2018;12;9;8;47;0;-42.844967;81.560300;31.;9;4.14;14;;;;;;;;4250698S;08133618E;;0;;;
HAR09;2018;12;9;9;2;0;-42.766233;81.579867;4.0;12;4.14;13.5;;;;;;;;4245974S;08134792E;;0;;;
HAR09;2018;12;9;9;17;0;-42.738883;81.595133;10.;11;4.13;14;;;;;;;;4244333S;08135708E;;0;;;
HAR09;2018;12;9;9;32;0;-42.640467;81.641667;34.;11;4.13;13.5;;;;;;;;4238428S;08138500E;;0;;;
HAR09;2018;12;9;9;48;0;-42.576967;81.663500;2.0;14;4.13;13.5;;;;;;;;4234618S;08139810E;;0;;;
HAR09;2018;12;9;10;3;0;-42.539800;81.675450;26.;12;4.13;13.5;;;;;;;;4232388S;08140527E;;0;;;
HAR09;2018;12;9;10;18;0;-42.518950;81.684750;21.;14;4.13;14;;;;;;;;4231137S;08141085E;;0;;;
HAR09;2018;12;9;10;34;0;-42.455817;81.696383;21.;14;4.13;14;;;;;;;;4227349S;08141783E;;0;;;
HAR09;2018;12;9;10;49;0;-42.368867;81.709467;35.;10;4.13;14;;;;;;;;4222132S;08142568E;;0;;;
HAR09;2018;12;9;11;4;0;-42.338883;81.714583;1.0;10;4.13;14;;;;;;;;4220333S;08142875E;;0;;;
HAR09;2018;12;9;11;19;0;-42.384367;81.698433;21.;14;4.13;13.5;;;;;;;;4223062S;08141906E;;0;;;
HAR09;2018;12;9;11;35;0;-42.406267;81.696933;15.;9;4.13;13.5;;;;;;;;4224376S;08141816E;;0;;;
HAR09;2018;12;9;11;50;0;-42.401033;81.712067;18.;10;4.13;13;;;;;;;;4224062S;08142724E;;0;;;
HAR09;2018;12;9;12;5;0;-42.441017;81.722333;18.;8;4.13;13.5;;;;;;;;4226461S;08143340E;;0;;;
HAR09;2018;12;9;12;20;0;-42.484517;81.718400;19.;8;4.13;13.5;;;;;;;;4229071S;08143104E;;0;;;
HAR09;2018;12;9;12;36;0;-42.420533;81.714517;39.;8;4.13;14;;;;;;;;4225232S;08142871E;;0;;;
HAR09;2018;12;9;12;51;0;-42.395683;81.701883;22.;8;4.13;13.5;;;;;;;;4223741S;08142113E;;0;;;
HAR09;2018;12;9;13;6;0;-42.375183;81.713233;22.;9;4.12;13.5;;;;;;;;4222511S;08142794E;;0;;;
HAR09;2018;12;9;13;21;0;-42.284733;81.714083;15.;11;4.12;13.5;;;;;;;;4217084S;08142845E;;0;;;
HAR09;2018;12;9;13;37;0;-42.188417;81.723583;35.;8;4.12;13.5;;;;;;;;4211305S;08143415E;;0;;;
HAR09;2018;12;9;13;52;0;-42.126300;81.731250;51.;9;4.12;13.5;;;;;;;;4207578S;08143875E;;0;;;
HAR09;2018;12;9;14;7;0;-42.026717;81.753067;17.;8;4.12;13.5;;;;;;;;4201603S;08145184E;;0;;;
HAR09;2018;12;9;14;22;0;-41.990400;81.762900;4.1;11;4.12;13.5;;;;;;;;4159424S;08145774E;;0;;;
HAR09;2018;12;9;14;38;0;-42.044683;81.769683;1.9;15;4.12;13.5;;;;;;;;4202681S;08146181E;;0;;;
HAR09;2018;12;9;14;53;0;-42.041050;81.772067;0.6;18;4.12;13.5;;;;;;;;4202463S;08146324E;;0;;;
HAR09;2018;12;9;15;8;0;-42.038400;81.774633;0.8;19;4.12;12.5;;;;;;;;4202304S;08146478E;;0;;;
HAR09;2018;12;9;15;24;0;-42.034667;81.778733;0.8;10;4.12;13.5;;;;;;;;4202080S;08146724E;;0;;;
HAR09;2018;12;9;15;39;0;-42.032683;81.780417;0.6;10;4.12;13.5;;;;;;;;4201961S;08146825E;;0;;;
HAR09;2018;12;9;15;55;0;-42.031500;81.782233;0.7;27;4.12;15.5;;;;;;;;4201890S;08146934E;;0;;;
HAR09;2018;12;9;16;10;0;-42.029583;81.784450;1.1;5;4.12;16.5;;;;;;;;4201775S;08147067E;;0;;;
HAR09;2018;12;9;16;25;0;-42.027633;81.786300;0.5;7;4.12;16.5;;;;;;;;4201658S;08147178E;;0;;;
HAR09;2018;12;9;16;40;0;-42.025883;81.788300;0.5;6;4.11;17;;;;;;;;4201553S;08147298E;;0;;;
HAR09;2018;12;9;16;55;0;-42.024300;81.790267;2.1;8;4.11;16.5;;;;;;;;4201458S;08147416E;;0;;;
HAR09;2018;12;9;17;11;0;-42.022617;81.792050;1.6;7;4.11;16.5;;;;;;;;4201357S;08147523E;;0;;;
HAR09;2018;12;9;17;26;0;-42.021017;81.794233;1.1;7;4.11;15;;;;;;;;4201261S;08147654E;;0;;;
